#K-Path(1/A) Energy-Level(eV)
# NKPTS & NBANDS:  99  48
# Band-Index    1
    3.14422    -17.148916
    3.10269    -17.143055
    3.06117    -17.125318
    3.01964    -17.095826
    2.97811    -17.054841
    2.93658    -17.002605
    2.89505    -16.939419
    2.85352    -16.865713
    2.81200    -16.781900
    2.77047    -16.688624
    2.72894    -16.586507
    2.68741    -16.476272
    2.64588    -16.358684
    2.60436    -16.234661
    2.56283    -16.105200
    2.52130    -15.971403
    2.47977    -15.834460
    2.43824    -15.695635
    2.39671    -15.556356
    2.35519    -15.418150
    2.31366    -15.282607
    2.27213    -15.151409
    2.23060    -15.026277
    2.18907    -14.908887
    2.14755    -14.800886
    2.10602    -14.703760
    2.06449    -14.618733
    2.02296    -14.546795
    1.98143    -14.488555
    1.93990    -14.444225
    1.89838    -14.413601
    1.85685    -14.396034
    1.81532    -14.390482
    1.81532    -14.390482
    1.79456    -14.391786
    1.77379    -14.395565
    1.75303    -14.401623
    1.73226    -14.409748
    1.71150    -14.419728
    1.69074    -14.431357
    1.66997    -14.444418
    1.64921    -14.458708
    1.62844    -14.474025
    1.60768    -14.490172
    1.58692    -14.506953
    1.56615    -14.524194
    1.54539    -14.541717
    1.52462    -14.559353
    1.50386    -14.576948
    1.48309    -14.594346
    1.46233    -14.611406
    1.44157    -14.627994
    1.42080    -14.643985
    1.40004    -14.659263
    1.37927    -14.673719
    1.35851    -14.687249
    1.33775    -14.699769
    1.31698    -14.711190
    1.29622    -14.721442
    1.27545    -14.730457
    1.25469    -14.738179
    1.23393    -14.744559
    1.21316    -14.749558
    1.19240    -14.753144
    1.17163    -14.755291
    1.15087    -14.755998
    1.15087    -14.755998
    1.11490    -14.764254
    1.07894    -14.788854
    1.04297    -14.829093
    1.00701    -14.883898
    0.97104    -14.951898
    0.93508    -15.031551
    0.89912    -15.121233
    0.86315    -15.219276
    0.82719    -15.324056
    0.79122    -15.434023
    0.75526    -15.547695
    0.71929    -15.663712
    0.68333    -15.780812
    0.64736    -15.897787
    0.61140    -16.013597
    0.57543    -16.127334
    0.53947    -16.238056
    0.50350    -16.345007
    0.46754    -16.447435
    0.43158    -16.544700
    0.39561    -16.636231
    0.35965    -16.721532
    0.32368    -16.800010
    0.28772    -16.871328
    0.25175    -16.935089
    0.21579    -16.991018
    0.17982    -17.038800
    0.14386    -17.078195
    0.10789    -17.109022
    0.07193    -17.131204
    0.03596    -17.144514
    0.00000    -17.148916

# Band-Index    2
    0.00000    -16.572996
    0.03596    -16.568956
    0.07193    -16.557012
    0.10789    -16.537149
    0.14386    -16.509449
    0.17982    -16.474060
    0.21579    -16.431081
    0.25175    -16.380865
    0.28772    -16.323647
    0.32368    -16.259700
    0.35965    -16.189377
    0.39561    -16.113018
    0.43158    -16.031128
    0.46754    -15.944191
    0.50350    -15.852748
    0.53947    -15.757466
    0.57543    -15.659044
    0.61140    -15.558230
    0.64736    -15.455916
    0.68333    -15.352970
    0.71929    -15.250402
    0.75526    -15.149288
    0.79122    -15.050910
    0.82719    -14.956506
    0.86315    -14.867444
    0.89912    -14.785121
    0.93508    -14.711005
    0.97104    -14.646555
    1.00701    -14.593112
    1.04297    -14.551705
    1.07894    -14.522726
    1.11490    -14.505817
    1.15087    -14.500305
    1.15087    -14.500305
    1.17163    -14.499788
    1.19240    -14.498222
    1.21316    -14.495609
    1.23393    -14.491976
    1.25469    -14.487349
    1.27545    -14.481771
    1.29622    -14.475289
    1.31698    -14.467956
    1.33775    -14.459838
    1.35851    -14.451000
    1.37927    -14.441522
    1.40004    -14.431478
    1.42080    -14.420959
    1.44157    -14.410054
    1.46233    -14.398854
    1.48309    -14.387458
    1.50386    -14.375961
    1.52462    -14.364464
    1.54539    -14.353070
    1.56615    -14.341879
    1.58692    -14.330996
    1.60768    -14.320529
    1.62844    -14.310573
    1.64921    -14.301241
    1.66997    -14.292637
    1.69074    -14.284866
    1.71150    -14.278028
    1.73226    -14.272225
    1.75303    -14.267554
    1.77379    -14.264109
    1.79456    -14.261981
    1.81532    -14.261250
    1.81532    -14.261250
    1.85685    -14.264306
    1.89838    -14.273889
    1.93990    -14.290604
    1.98143    -14.315204
    2.02296    -14.348915
    2.06449    -14.393795
    2.10602    -14.452191
    2.14755    -14.524752
    2.18907    -14.610031
    2.23060    -14.705913
    2.27213    -14.810375
    2.31366    -14.921593
    2.35519    -15.037838
    2.39671    -15.157444
    2.43824    -15.278873
    2.47977    -15.400631
    2.52130    -15.521342
    2.56283    -15.639755
    2.60436    -15.754717
    2.64588    -15.865110
    2.68741    -15.970053
    2.72894    -16.068632
    2.77047    -16.160028
    2.81200    -16.243578
    2.85352    -16.318684
    2.89505    -16.384779
    2.93658    -16.441507
    2.97811    -16.488414
    3.01964    -16.525289
    3.06117    -16.551745
    3.10269    -16.567657
    3.14422    -16.572996

# Band-Index    3
    3.14422    -15.492243
    3.10269    -15.489604
    3.06117    -15.481400
    3.01964    -15.467969
    2.97811    -15.449245
    2.93658    -15.425299
    2.89505    -15.396345
    2.85352    -15.362593
    2.81200    -15.324276
    2.77047    -15.281683
    2.72894    -15.235110
    2.68741    -15.184911
    2.64588    -15.131428
    2.60436    -15.075215
    2.56283    -15.016644
    2.52130    -14.956251
    2.47977    -14.894536
    2.43824    -14.832048
    2.39671    -14.769361
    2.35519    -14.707087
    2.31366    -14.645802
    2.27213    -14.586078
    2.23060    -14.528393
    2.18907    -14.473053
    2.14755    -14.420058
    2.10602    -14.369067
    2.06449    -14.320036
    2.02296    -14.274644
    1.98143    -14.235728
    1.93990    -14.205305
    1.89838    -14.184066
    1.85685    -14.171820
    1.81532    -14.167924
    1.81532    -14.167924
    1.79456    -14.168837
    1.77379    -14.171506
    1.75303    -14.175813
    1.73226    -14.181624
    1.71150    -14.188801
    1.69074    -14.197211
    1.66997    -14.206701
    1.64921    -14.217129
    1.62844    -14.228347
    1.60768    -14.240206
    1.58692    -14.252555
    1.56615    -14.265256
    1.54539    -14.278168
    1.52462    -14.291157
    1.50386    -14.304096
    1.48309    -14.316866
    1.46233    -14.329355
    1.44157    -14.341459
    1.42080    -14.353086
    1.40004    -14.364153
    1.37927    -14.374584
    1.35851    -14.384309
    1.33775    -14.393274
    1.31698    -14.401421
    1.29622    -14.408710
    1.27545    -14.415099
    1.25469    -14.420557
    1.23393    -14.425054
    1.21316    -14.428571
    1.19240    -14.431088
    1.17163    -14.432591
    1.15087    -14.433085
    1.15087    -14.433085
    1.11490    -14.437287
    1.07894    -14.449475
    1.04297    -14.468471
    1.00701    -14.493044
    0.97104    -14.522391
    0.93508    -14.556039
    0.89912    -14.593629
    0.86315    -14.634743
    0.82719    -14.678899
    0.79122    -14.725587
    0.75526    -14.774246
    0.71929    -14.824338
    0.68333    -14.875304
    0.64736    -14.926609
    0.61140    -14.977770
    0.57543    -15.028340
    0.53947    -15.077881
    0.50350    -15.125942
    0.46754    -15.172184
    0.43158    -15.216291
    0.39561    -15.257854
    0.35965    -15.296687
    0.32368    -15.332501
    0.28772    -15.365106
    0.25175    -15.394305
    0.21579    -15.419934
    0.17982    -15.441848
    0.14386    -15.459859
    0.10789    -15.473944
    0.07193    -15.484070
    0.03596    -15.490258
    0.00000    -15.492243

# Band-Index    4
    0.00000    -15.143936
    0.03596    -15.142192
    0.07193    -15.136697
    0.10789    -15.127715
    0.14386    -15.115223
    0.17982    -15.099223
    0.21579    -15.079795
    0.25175    -15.057097
    0.28772    -15.031227
    0.32368    -15.002332
    0.35965    -14.970617
    0.39561    -14.936249
    0.43158    -14.899487
    0.46754    -14.860484
    0.50350    -14.819707
    0.53947    -14.777373
    0.57543    -14.733818
    0.61140    -14.689409
    0.64736    -14.644573
    0.68333    -14.599721
    0.71929    -14.555292
    0.75526    -14.511782
    0.79122    -14.469694
    0.82719    -14.429527
    0.86315    -14.391818
    0.89912    -14.357039
    0.93508    -14.325701
    0.97104    -14.298264
    1.00701    -14.275132
    1.04297    -14.256690
    1.07894    -14.243248
    1.11490    -14.235075
    1.15087    -14.232340
    1.15087    -14.232340
    1.17163    -14.231939
    1.19240    -14.230716
    1.21316    -14.228672
    1.23393    -14.225824
    1.25469    -14.222191
    1.27545    -14.217799
    1.29622    -14.212680
    1.31698    -14.206869
    1.33775    -14.200412
    1.35851    -14.193352
    1.37927    -14.185745
    1.40004    -14.177645
    1.42080    -14.169118
    1.44157    -14.160230
    1.46233    -14.151053
    1.48309    -14.141666
    1.50386    -14.132145
    1.52462    -14.122575
    1.54539    -14.113044
    1.56615    -14.103641
    1.58692    -14.094458
    1.60768    -14.085592
    1.62844    -14.077129
    1.64921    -14.069172
    1.66997    -14.061817
    1.69074    -14.055158
    1.71150    -14.049288
    1.73226    -14.044301
    1.75303    -14.040283
    1.77379    -14.037321
    1.79456    -14.035495
    1.81532    -14.034871
    1.81532    -14.034871
    1.85685    -14.037479
    1.89838    -14.045518
    1.93990    -14.059164
    1.98143    -14.078400
    2.02296    -14.103065
    2.06449    -14.132898
    2.10602    -14.167563
    2.14755    -14.206658
    2.18907    -14.249732
    2.23060    -14.296263
    2.27213    -14.345692
    2.31366    -14.397423
    2.35519    -14.450852
    2.39671    -14.505366
    2.43824    -14.560398
    2.47977    -14.615352
    2.52130    -14.669724
    2.56283    -14.722997
    2.60436    -14.774694
    2.64588    -14.824363
    2.68741    -14.871594
    2.72894    -14.915975
    2.77047    -14.957308
    2.81200    -14.995045
    2.85352    -15.029005
    2.89505    -15.058908
    2.93658    -15.084597
    2.97811    -15.105801
    3.01964    -15.122460
    3.06117    -15.134329
    3.10269    -15.141564
    3.14422    -15.143936

# Band-Index    5
    3.14422    -8.072712
    3.10269    -8.065665
    3.06117    -8.043915
    3.01964    -8.008056
    2.97811    -7.958358
    2.93658    -7.895685
    2.89505    -7.820623
    2.85352    -7.734446
    2.81200    -7.638412
    2.77047    -7.534455
    2.72894    -7.424402
    2.68741    -7.310945
    2.64588    -7.197916
    2.60436    -7.090174
    2.56283    -6.994018
    2.52130    -6.918308
    2.47977    -6.872590
    2.43824    -6.863621
    2.39671    -6.890201
    2.35519    -6.941316
    2.31366    -7.002469
    2.27213    -7.061645
    2.23060    -7.110816
    2.18907    -7.144952
    2.14755    -7.160950
    2.10602    -7.157117
    2.06449    -7.133019
    2.02296    -7.090572
    1.98143    -7.061106
    1.93990    -7.112670
    1.89838    -7.155395
    1.85685    -7.180844
    1.81532    -7.189142
    1.81532    -7.189142
    1.79456    -7.187153
    1.77379    -7.181315
    1.75303    -7.171876
    1.73226    -7.159122
    1.71150    -7.143481
    1.69074    -7.125791
    1.66997    -7.109706
    1.64921    -7.124942
    1.62844    -7.178862
    1.60768    -7.238674
    1.58692    -7.299327
    1.56615    -7.359619
    1.54539    -7.418898
    1.52462    -7.476718
    1.50386    -7.532752
    1.48309    -7.586705
    1.46233    -7.638342
    1.44157    -7.687453
    1.42080    -7.733856
    1.40004    -7.777397
    1.37927    -7.817935
    1.35851    -7.855329
    1.33775    -7.889491
    1.31698    -7.920307
    1.29622    -7.947693
    1.27545    -7.971572
    1.25469    -7.991887
    1.23393    -8.008575
    1.21316    -8.021590
    1.19240    -8.030906
    1.17163    -8.036472
    1.15087    -8.038328
    1.15087    -8.038328
    1.11490    -8.029269
    1.07894    -8.002390
    1.04297    -7.958374
    1.00701    -7.898366
    0.97104    -7.823833
    0.93508    -7.736635
    0.89912    -7.639044
    0.86315    -7.533813
    0.82719    -7.424392
    0.79122    -7.315555
    0.75526    -7.213606
    0.71929    -7.127374
    0.68333    -7.066519
    0.64736    -7.038157
    0.61140    -7.044000
    0.57543    -7.080130
    0.53947    -7.139522
    0.50350    -7.215168
    0.46754    -7.300930
    0.43158    -7.391649
    0.39561    -7.483580
    0.35965    -7.574101
    0.32368    -7.660688
    0.28772    -7.741765
    0.25175    -7.815802
    0.21579    -7.881926
    0.17982    -7.938992
    0.14386    -7.986647
    0.10789    -8.024113
    0.07193    -8.051103
    0.03596    -8.067374
    0.00000    -8.072712

# Band-Index    6
    0.00000    -7.121378
    0.03596    -7.116757
    0.07193    -7.102361
    0.10789    -7.078218
    0.14386    -7.044701
    0.17982    -7.002426
    0.21579    -6.952155
    0.25175    -6.894409
    0.28772    -6.831026
    0.32368    -6.762753
    0.35965    -6.691856
    0.39561    -6.620741
    0.43158    -6.552710
    0.46754    -6.492142
    0.50350    -6.444859
    0.53947    -6.418119
    0.57543    -6.419897
    0.61140    -6.454445
    0.64736    -6.517640
    0.68333    -6.597989
    0.71929    -6.685345
    0.75526    -6.774505
    0.79122    -6.864011
    0.82719    -6.952597
    0.86315    -7.038790
    0.89912    -7.120718
    0.93508    -7.196459
    0.97104    -7.264179
    1.00701    -7.322153
    1.04297    -7.368911
    1.07894    -7.403242
    1.11490    -7.424223
    1.15087    -7.431308
    1.15087    -7.431308
    1.17163    -7.429533
    1.19240    -7.424211
    1.21316    -7.415284
    1.23393    -7.402812
    1.25469    -7.386803
    1.27545    -7.367300
    1.29622    -7.344356
    1.31698    -7.318015
    1.33775    -7.288349
    1.35851    -7.255417
    1.37927    -7.219322
    1.40004    -7.180132
    1.42080    -7.137971
    1.44157    -7.092968
    1.46233    -7.045292
    1.48309    -6.995176
    1.50386    -6.943195
    1.52462    -6.904769
    1.54539    -6.931677
    1.56615    -6.961362
    1.58692    -6.990638
    1.60768    -7.018794
    1.62844    -7.044733
    1.64921    -7.063762
    1.66997    -7.043718
    1.69074    -6.993241
    1.71150    -6.946549
    1.73226    -6.931206
    1.75303    -6.939181
    1.77379    -6.947359
    1.79456    -6.952730
    1.81532    -6.954598
    1.81532    -6.954598
    1.85685    -6.946666
    1.89838    -6.922143
    1.93990    -6.947237
    1.98143    -7.010151
    2.02296    -6.961930
    2.06449    -6.866586
    2.10602    -6.760504
    2.14755    -6.703623
    2.18907    -6.697947
    2.23060    -6.684653
    2.27213    -6.657650
    2.31366    -6.617645
    2.35519    -6.566089
    2.39671    -6.504000
    2.43824    -6.433760
    2.47977    -6.365349
    2.52130    -6.319626
    2.56283    -6.314809
    2.60436    -6.349076
    2.64588    -6.409758
    2.68741    -6.486359
    2.72894    -6.570937
    2.77047    -6.658079
    2.81200    -6.743673
    2.85352    -6.824828
    2.89505    -6.898868
    2.93658    -6.964439
    2.97811    -7.019906
    3.01964    -7.063965
    3.06117    -7.096068
    3.10269    -7.115333
    3.14422    -7.121378

# Band-Index    7
    3.14422    -3.834641
    3.10269    -3.840838
    3.06117    -3.892780
    3.01964    -3.979115
    2.97811    -4.090001
    2.93658    -4.224202
    2.89505    -4.377158
    2.85352    -4.547338
    2.81200    -4.725525
    2.77047    -4.909616
    2.72894    -5.095131
    2.68741    -5.277724
    2.64588    -5.451989
    2.60436    -5.611103
    2.56283    -5.743384
    2.52130    -5.833311
    2.47977    -5.870884
    2.43824    -5.865211
    2.39671    -5.834923
    2.35519    -5.807467
    2.31366    -5.922346
    2.27213    -6.106885
    2.23060    -6.283010
    2.18907    -6.445479
    2.14755    -6.584760
    2.10602    -6.643417
    2.06449    -6.666017
    2.02296    -6.745990
    1.98143    -6.821097
    1.93990    -6.880290
    1.89838    -6.872761
    1.85685    -6.812218
    1.81532    -6.787876
    1.81532    -6.787876
    1.79456    -6.794447
    1.77379    -6.813757
    1.75303    -6.843950
    1.73226    -6.880061
    1.71150    -6.896819
    1.69074    -6.883912
    1.66997    -6.864166
    1.64921    -6.841538
    1.62844    -6.817232
    1.60768    -6.792854
    1.58692    -6.774093
    1.56615    -6.786338
    1.54539    -6.833339
    1.52462    -6.884324
    1.50386    -6.870133
    1.48309    -6.841377
    1.46233    -6.813274
    1.44157    -6.786368
    1.42080    -6.760961
    1.40004    -6.737272
    1.37927    -6.715464
    1.35851    -6.695648
    1.33775    -6.677880
    1.31698    -6.662169
    1.29622    -6.648520
    1.27545    -6.636860
    1.25469    -6.627132
    1.23393    -6.619297
    1.21316    -6.613247
    1.19240    -6.608962
    1.17163    -6.606338
    1.15087    -6.605461
    1.15087    -6.605461
    1.11490    -6.598427
    1.07894    -6.577515
    1.04297    -6.543008
    1.00701    -6.495442
    0.97104    -6.435586
    0.93508    -6.364400
    0.89912    -6.283211
    0.86315    -6.193799
    0.82719    -6.099124
    0.79122    -6.005800
    0.75526    -5.932046
    0.71929    -5.897535
    0.68333    -5.880501
    0.64736    -5.855313
    0.61140    -5.807581
    0.57543    -5.729444
    0.53947    -5.620501
    0.50350    -5.487639
    0.46754    -5.338631
    0.43158    -5.180295
    0.39561    -5.016928
    0.35965    -4.853261
    0.32368    -4.692107
    0.28772    -4.536644
    0.25175    -4.386405
    0.21579    -4.251399
    0.17982    -4.130223
    0.14386    -4.025586
    0.10789    -3.940488
    0.07193    -3.876072
    0.03596    -3.839172
    0.00000    -3.834641

# Band-Index    8
    0.00000    -3.817194
    0.03596    -3.823724
    0.07193    -3.812462
    0.10789    -3.813524
    0.14386    -3.879990
    0.17982    -3.962272
    0.21579    -4.058080
    0.25175    -4.164442
    0.28772    -4.281651
    0.32368    -4.404149
    0.35965    -4.531022
    0.39561    -4.659650
    0.43158    -4.787504
    0.46754    -4.912639
    0.50350    -5.033433
    0.53947    -5.149313
    0.57543    -5.262059
    0.61140    -5.373931
    0.64736    -5.486355
    0.68333    -5.597515
    0.71929    -5.700669
    0.75526    -5.777756
    0.79122    -5.816011
    0.82719    -5.848810
    0.86315    -5.907165
    0.89912    -5.984113
    0.93508    -6.062229
    0.97104    -6.133331
    1.00701    -6.193964
    1.04297    -6.242429
    1.07894    -6.277674
    1.11490    -6.299050
    1.15087    -6.306251
    1.15087    -6.306251
    1.17163    -6.307518
    1.19240    -6.311302
    1.21316    -6.317490
    1.23393    -6.326110
    1.25469    -6.337119
    1.27545    -6.350534
    1.29622    -6.366296
    1.31698    -6.384347
    1.33775    -6.404601
    1.35851    -6.426932
    1.37927    -6.451199
    1.40004    -6.477225
    1.42080    -6.504786
    1.44157    -6.533628
    1.46233    -6.563448
    1.48309    -6.593894
    1.50386    -6.624507
    1.52462    -6.654558
    1.54539    -6.682366
    1.56615    -6.700772
    1.58692    -6.681613
    1.60768    -6.628729
    1.62844    -6.567484
    1.64921    -6.503665
    1.66997    -6.438989
    1.69074    -6.374621
    1.71150    -6.311857
    1.73226    -6.252530
    1.75303    -6.199254
    1.77379    -6.155827
    1.79456    -6.126971
    1.81532    -6.116858
    1.81532    -6.116858
    1.85685    -6.153991
    1.89838    -6.241056
    1.93990    -6.342926
    1.98143    -6.439390
    2.02296    -6.519565
    2.06449    -6.567344
    2.10602    -6.512527
    2.14755    -6.391642
    2.18907    -6.251475
    2.23060    -6.100247
    2.27213    -5.948284
    2.31366    -5.827763
    2.35519    -5.726053
    2.39671    -5.546349
    2.43824    -5.395541
    2.47977    -5.301163
    2.52130    -5.238603
    2.56283    -5.169768
    2.60436    -5.081098
    2.64588    -4.971963
    2.68741    -4.847295
    2.72894    -4.711775
    2.77047    -4.570531
    2.81200    -4.428155
    2.85352    -4.289063
    2.89505    -4.156113
    2.93658    -4.035753
    2.97811    -3.930103
    3.01964    -3.842975
    3.06117    -3.807059
    3.10269    -3.826256
    3.14422    -3.817194

# Band-Index    9
    3.14422    -3.729060
    3.10269    -3.735884
    3.06117    -3.776914
    3.01964    -3.800641
    2.97811    -3.879182
    2.93658    -3.971081
    2.89505    -4.072342
    2.85352    -4.179417
    2.81200    -4.289036
    2.77047    -4.398038
    2.72894    -4.505417
    2.68741    -4.608505
    2.64588    -4.706237
    2.60436    -4.798666
    2.56283    -4.887347
    2.52130    -4.976087
    2.47977    -5.066204
    2.43824    -5.141685
    2.39671    -5.283818
    2.35519    -5.444456
    2.31366    -5.537139
    2.27213    -5.529989
    2.23060    -5.484872
    2.18907    -5.436596
    2.14755    -5.396417
    2.10602    -5.371079
    2.06449    -5.367501
    2.02296    -5.394881
    1.98143    -5.458887
    1.93990    -5.549003
    1.89838    -5.640823
    1.85685    -5.707967
    1.81532    -5.731729
    1.81532    -5.731729
    1.79456    -5.725782
    1.77379    -5.708514
    1.75303    -5.682859
    1.73226    -5.654138
    1.71150    -5.627969
    1.69074    -5.608092
    1.66997    -5.595543
    1.64921    -5.589678
    1.62844    -5.589190
    1.60768    -5.592804
    1.58692    -5.599458
    1.56615    -5.608369
    1.54539    -5.618904
    1.52462    -5.630593
    1.50386    -5.643047
    1.48309    -5.655972
    1.46233    -5.669102
    1.44157    -5.682235
    1.42080    -5.695192
    1.40004    -5.707798
    1.37927    -5.719910
    1.35851    -5.731395
    1.33775    -5.742140
    1.31698    -5.752020
    1.29622    -5.760965
    1.27545    -5.768869
    1.25469    -5.775681
    1.23393    -5.781329
    1.21316    -5.785749
    1.19240    -5.788917
    1.17163    -5.790759
    1.15087    -5.791349
    1.15087    -5.791349
    1.11490    -5.789428
    1.07894    -5.784238
    1.04297    -5.776330
    1.00701    -5.766631
    0.97104    -5.756134
    0.93508    -5.745298
    0.89912    -5.732922
    0.86315    -5.712144
    0.82719    -5.665874
    0.79122    -5.582549
    0.75526    -5.476351
    0.71929    -5.364239
    0.68333    -5.264102
    0.64736    -5.187793
    0.61140    -5.118931
    0.57543    -5.040120
    0.53947    -4.947084
    0.50350    -4.843114
    0.46754    -4.732836
    0.43158    -4.619941
    0.39561    -4.507371
    0.35965    -4.396033
    0.32368    -4.287582
    0.28772    -4.183331
    0.25175    -4.084377
    0.21579    -3.992243
    0.17982    -3.908289
    0.14386    -3.834435
    0.10789    -3.789566
    0.07193    -3.764052
    0.03596    -3.733813
    0.00000    -3.729060

# Band-Index    10
    0.00000    -3.715320
    0.03596    -3.722296
    0.07193    -3.724347
    0.10789    -3.772106
    0.14386    -3.757901
    0.17982    -3.716909
    0.21579    -3.667842
    0.25175    -3.609976
    0.28772    -3.545630
    0.32368    -3.607994
    0.35965    -3.764077
    0.39561    -3.921458
    0.43158    -4.079675
    0.46754    -4.238252
    0.50350    -4.396125
    0.53947    -4.552304
    0.57543    -4.704731
    0.61140    -4.850281
    0.64736    -4.982261
    0.68333    -5.084890
    0.71929    -5.146285
    0.75526    -5.182044
    0.79122    -5.209380
    0.82719    -5.235916
    0.86315    -5.264250
    0.89912    -5.294440
    0.93508    -5.325295
    0.97104    -5.355142
    1.00701    -5.382287
    1.04297    -5.405161
    1.07894    -5.422467
    1.11490    -5.433257
    1.15087    -5.436988
    1.15087    -5.436988
    1.17163    -5.436495
    1.19240    -5.434928
    1.21316    -5.432259
    1.23393    -5.428545
    1.25469    -5.423835
    1.27545    -5.418197
    1.29622    -5.411707
    1.31698    -5.404439
    1.33775    -5.396484
    1.35851    -5.387939
    1.37927    -5.378909
    1.40004    -5.369488
    1.42080    -5.359794
    1.44157    -5.349934
    1.46233    -5.340041
    1.48309    -5.330244
    1.50386    -5.320704
    1.52462    -5.311654
    1.54539    -5.303381
    1.56615    -5.296324
    1.58692    -5.291126
    1.60768    -5.288830
    1.62844    -5.291050
    1.64921    -5.300317
    1.66997    -5.319688
    1.69074    -5.350885
    1.71150    -5.391520
    1.73226    -5.436006
    1.75303    -5.478982
    1.77379    -5.516183
    1.79456    -5.542613
    1.81532    -5.552433
    1.81532    -5.552433
    1.85685    -5.514386
    1.89838    -5.429358
    1.93990    -5.339718
    1.98143    -5.266334
    2.02296    -5.210913
    2.06449    -5.171161
    2.10602    -5.147247
    2.14755    -5.137126
    2.18907    -5.137246
    2.23060    -5.143627
    2.27213    -5.152806
    2.31366    -5.161782
    2.35519    -5.167240
    2.39671    -5.161902
    2.43824    -5.092496
    2.47977    -4.906701
    2.52130    -4.709910
    2.56283    -4.514646
    2.60436    -4.333705
    2.64588    -4.172110
    2.68741    -4.023347
    2.72894    -3.877501
    2.77047    -3.730538
    2.81200    -3.580154
    2.85352    -3.542473
    2.89505    -3.613127
    2.93658    -3.677657
    2.97811    -3.731720
    3.01964    -3.775430
    3.06117    -3.738627
    3.10269    -3.723504
    3.14422    -3.715320

# Band-Index    11
    3.14422    -3.674381
    3.10269    -3.695186
    3.06117    -3.704550
    3.01964    -3.674949
    2.97811    -3.634011
    2.93658    -3.581947
    2.89505    -3.520051
    2.85352    -3.450629
    2.81200    -3.465096
    2.77047    -3.388444
    2.72894    -3.451643
    2.68741    -3.653819
    2.64588    -3.857671
    2.60436    -4.056104
    2.56283    -4.246945
    2.52130    -4.427552
    2.47977    -4.583372
    2.43824    -4.695944
    2.39671    -4.760667
    2.35519    -4.788327
    2.31366    -4.792193
    2.27213    -4.782066
    2.23060    -4.763979
    2.18907    -4.741098
    2.14755    -4.715204
    2.10602    -4.693551
    2.06449    -4.749695
    2.02296    -4.856181
    1.98143    -4.937579
    1.93990    -4.993498
    1.89838    -5.030530
    1.85685    -5.050040
    1.81532    -5.051770
    1.81532    -5.051770
    1.79456    -5.053972
    1.77379    -5.057511
    1.75303    -5.057850
    1.73226    -5.051871
    1.71150    -5.035541
    1.69074    -5.003392
    1.66997    -4.950596
    1.64921    -4.876637
    1.62844    -4.785737
    1.60768    -4.686373
    1.58692    -4.614871
    1.56615    -4.605275
    1.54539    -4.608084
    1.52462    -4.612099
    1.50386    -4.615151
    1.48309    -4.616404
    1.46233    -4.615466
    1.44157    -4.612162
    1.42080    -4.606500
    1.40004    -4.598599
    1.37927    -4.588712
    1.35851    -4.577180
    1.33775    -4.564456
    1.31698    -4.551031
    1.29622    -4.537482
    1.27545    -4.524345
    1.25469    -4.512181
    1.23393    -4.501475
    1.21316    -4.492520
    1.19240    -4.485824
    1.17163    -4.481343
    1.15087    -4.479663
    1.15087    -4.479663
    1.11490    -4.475852
    1.07894    -4.465020
    1.04297    -4.446841
    1.00701    -4.421489
    0.97104    -4.389064
    0.93508    -4.349600
    0.89912    -4.303224
    0.86315    -4.250289
    0.82719    -4.190786
    0.79122    -4.125207
    0.75526    -4.053428
    0.71929    -3.975978
    0.68333    -3.893143
    0.64736    -3.805346
    0.61140    -3.712882
    0.57543    -3.616622
    0.53947    -3.516255
    0.50350    -3.413896
    0.46754    -3.311476
    0.43158    -3.245239
    0.39561    -3.317224
    0.35965    -3.397820
    0.32368    -3.474190
    0.28772    -3.454827
    0.25175    -3.515024
    0.21579    -3.570935
    0.17982    -3.618419
    0.14386    -3.657623
    0.10789    -3.688222
    0.07193    -3.709653
    0.03596    -3.690270
    0.00000    -3.674381

# Band-Index    12
    0.00000    -2.376840
    0.03596    -2.482056
    0.07193    -2.600613
    0.10789    -2.729532
    0.14386    -2.866217
    0.17982    -3.007928
    0.21579    -3.153260
    0.25175    -3.302196
    0.28772    -3.450905
    0.32368    -3.382217
    0.35965    -3.306872
    0.39561    -3.227118
    0.43158    -3.194110
    0.46754    -3.225282
    0.50350    -3.321677
    0.53947    -3.417636
    0.57543    -3.511709
    0.61140    -3.602579
    0.64736    -3.689917
    0.68333    -3.772904
    0.71929    -3.851295
    0.75526    -3.924691
    0.79122    -3.992710
    0.82719    -4.054945
    0.86315    -4.111490
    0.89912    -4.161804
    0.93508    -4.205925
    0.97104    -4.243453
    1.00701    -4.274343
    1.04297    -4.298488
    1.07894    -4.315803
    1.11490    -4.326130
    1.15087    -4.329766
    1.15087    -4.329766
    1.17163    -4.331325
    1.19240    -4.335507
    1.21316    -4.341610
    1.23393    -4.349369
    1.25469    -4.358183
    1.27545    -4.367527
    1.29622    -4.376829
    1.31698    -4.385562
    1.33775    -4.393278
    1.35851    -4.399595
    1.37927    -4.404223
    1.40004    -4.406933
    1.42080    -4.407584
    1.44157    -4.406101
    1.46233    -4.402515
    1.48309    -4.397013
    1.50386    -4.390101
    1.52462    -4.383432
    1.54539    -4.385609
    1.56615    -4.441975
    1.58692    -4.537777
    1.60768    -4.578877
    1.62844    -4.595848
    1.64921    -4.631678
    1.66997    -4.693137
    1.69074    -4.767141
    1.71150    -4.840158
    1.73226    -4.904752
    1.75303    -4.957160
    1.77379    -4.995849
    1.79456    -5.020470
    1.81532    -5.029177
    1.81532    -5.029177
    1.85685    -5.008467
    1.89838    -4.964888
    1.93990    -4.895141
    1.98143    -4.794321
    2.02296    -4.679703
    2.06449    -4.635499
    2.10602    -4.579266
    2.14755    -4.449091
    2.18907    -4.433099
    2.23060    -4.442852
    2.27213    -4.446111
    2.31366    -4.440244
    2.35519    -4.423338
    2.39671    -4.393207
    2.43824    -4.347380
    2.47977    -4.282693
    2.52130    -4.194495
    2.56283    -4.075511
    2.60436    -3.920645
    2.64588    -3.737886
    2.68741    -3.544355
    2.72894    -3.352599
    2.77047    -3.300709
    2.81200    -3.373294
    2.85352    -3.424750
    2.89505    -3.267654
    2.93658    -3.108214
    2.97811    -2.947787
    3.01964    -2.789977
    3.06117    -2.636393
    3.10269    -2.497907
    3.14422    -2.376840

# Band-Index    13
    3.14422    -2.372564
    3.10269    -2.365697
    3.06117    -2.389008
    3.01964    -2.441166
    2.97811    -2.518305
    2.93658    -2.620308
    2.89505    -2.746121
    2.85352    -2.894803
    2.81200    -3.062713
    2.77047    -3.240364
    2.72894    -3.305797
    2.68741    -3.234285
    2.64588    -3.173894
    2.60436    -3.135127
    2.56283    -3.125223
    2.52130    -3.150953
    2.47977    -3.216019
    2.43824    -3.314077
    2.39671    -3.440048
    2.35519    -3.586079
    2.31366    -3.745406
    2.27213    -3.912664
    2.23060    -4.083241
    2.18907    -4.251630
    2.14755    -4.381098
    2.10602    -4.372440
    2.06449    -4.461450
    2.02296    -4.532806
    1.98143    -4.503586
    1.93990    -4.457316
    1.89838    -4.414614
    1.85685    -4.385397
    1.81532    -4.375519
    1.81532    -4.375519
    1.79456    -4.377769
    1.77379    -4.383982
    1.75303    -4.393057
    1.73226    -4.403534
    1.71150    -4.413458
    1.69074    -4.419683
    1.66997    -4.416016
    1.64921    -4.390598
    1.62844    -4.333800
    1.60768    -4.306472
    1.58692    -4.317145
    1.56615    -4.318535
    1.54539    -4.262468
    1.52462    -4.144744
    1.50386    -4.012885
    1.48309    -3.876708
    1.46233    -3.738875
    1.44157    -3.601051
    1.42080    -3.465876
    1.40004    -3.346744
    1.37927    -3.303176
    1.35851    -3.300234
    1.33775    -3.304472
    1.31698    -3.311476
    1.29622    -3.319918
    1.27545    -3.328951
    1.25469    -3.337935
    1.23393    -3.346281
    1.21316    -3.353402
    1.19240    -3.358882
    1.17163    -3.362233
    1.15087    -3.363373
    1.15087    -3.363373
    1.11490    -3.361317
    1.07894    -3.355369
    1.04297    -3.345292
    1.00701    -3.330901
    0.97104    -3.311951
    0.93508    -3.288129
    0.89912    -3.259088
    0.86315    -3.224644
    0.82719    -3.184460
    0.79122    -3.138572
    0.75526    -3.086954
    0.71929    -3.029900
    0.68333    -2.967804
    0.64736    -2.901350
    0.61140    -2.831470
    0.57543    -2.863645
    0.53947    -2.954710
    0.50350    -3.046250
    0.46754    -3.134040
    0.43158    -3.135081
    0.39561    -3.088337
    0.35965    -2.985887
    0.32368    -2.883330
    0.28772    -2.784256
    0.25175    -2.690381
    0.21579    -2.603268
    0.17982    -2.525762
    0.14386    -2.457523
    0.10789    -2.405311
    0.07193    -2.373755
    0.03596    -2.358826
    0.00000    -2.372564

# Band-Index    14
    0.00000    -2.352893
    0.03596    -2.352592
    0.07193    -2.363097
    0.10789    -2.394600
    0.14386    -2.439489
    0.17982    -2.498961
    0.21579    -2.569386
    0.25175    -2.649743
    0.28772    -2.736688
    0.32368    -2.828754
    0.35965    -2.924631
    0.39561    -3.022283
    0.43158    -3.115188
    0.46754    -3.044180
    0.50350    -2.951634
    0.53947    -2.855832
    0.57543    -2.761710
    0.61140    -2.773756
    0.64736    -2.686700
    0.68333    -2.602737
    0.71929    -2.523706
    0.75526    -2.581917
    0.79122    -2.641533
    0.82719    -2.695812
    0.86315    -2.744705
    0.89912    -2.787686
    0.93508    -2.824983
    0.97104    -2.856495
    1.00701    -2.882250
    1.04297    -2.902301
    1.07894    -2.916616
    1.11490    -2.925166
    1.15087    -2.928120
    1.15087    -2.928120
    1.17163    -2.928133
    1.19240    -2.928160
    1.21316    -2.928084
    1.23393    -2.928169
    1.25469    -2.928576
    1.27545    -2.929600
    1.29622    -2.931541
    1.31698    -2.934802
    1.33775    -2.941144
    1.35851    -3.041257
    1.37927    -3.168018
    1.40004    -3.260674
    1.42080    -3.287140
    1.44157    -3.319521
    1.46233    -3.397155
    1.48309    -3.509968
    1.50386    -3.633691
    1.52462    -3.760006
    1.54539    -3.885704
    1.56615    -4.008564
    1.58692    -4.125791
    1.60768    -4.231434
    1.62844    -4.278416
    1.64921    -4.264431
    1.66997    -4.246777
    1.69074    -4.229075
    1.71150    -4.212323
    1.73226    -4.197396
    1.75303    -4.185020
    1.77379    -4.175817
    1.79456    -4.170217
    1.81532    -4.168375
    1.81532    -4.168375
    1.85685    -4.175377
    1.89838    -4.195098
    1.93990    -4.224981
    1.98143    -4.261716
    2.02296    -4.301283
    2.06449    -4.339447
    2.10602    -4.308954
    2.14755    -4.141817
    2.18907    -3.971113
    2.23060    -3.801293
    2.27213    -3.635501
    2.31366    -3.476852
    2.35519    -3.329332
    2.39671    -3.198301
    2.43824    -3.090573
    2.47977    -3.013833
    2.52130    -2.973904
    2.56283    -2.970781
    2.60436    -3.001250
    2.64588    -3.055736
    2.68741    -3.127050
    2.72894    -3.204992
    2.77047    -3.165297
    2.81200    -2.994500
    2.85352    -2.839455
    2.89505    -2.702755
    2.93658    -2.586837
    2.97811    -2.493348
    3.01964    -2.425330
    3.06117    -2.382322
    3.10269    -2.359833
    3.14422    -2.352893

# Band-Index    15
    3.14422    -2.128698
    3.10269    -2.147965
    3.06117    -2.166804
    3.01964    -2.192419
    2.97811    -2.209279
    2.93658    -2.215134
    2.89505    -2.215170
    2.85352    -2.213137
    2.81200    -2.210070
    2.77047    -2.210686
    2.72894    -2.212498
    2.68741    -2.217095
    2.64588    -2.226563
    2.60436    -2.244071
    2.56283    -2.268574
    2.52130    -2.301627
    2.47977    -2.344811
    2.43824    -2.398600
    2.39671    -2.462499
    2.35519    -2.535315
    2.31366    -2.615777
    2.27213    -2.702684
    2.23060    -2.794543
    2.18907    -2.889918
    2.14755    -2.987107
    2.10602    -3.084236
    2.06449    -3.178962
    2.02296    -3.268541
    1.98143    -3.349681
    1.93990    -3.418612
    1.89838    -3.471357
    1.85685    -3.504499
    1.81532    -3.515774
    1.81532    -3.515774
    1.79456    -3.512985
    1.77379    -3.504863
    1.75303    -3.491980
    1.73226    -3.475129
    1.71150    -3.455281
    1.69074    -3.433439
    1.66997    -3.410552
    1.64921    -3.387541
    1.62844    -3.365130
    1.60768    -3.343904
    1.58692    -3.324223
    1.56615    -3.306377
    1.54539    -3.290421
    1.52462    -3.276173
    1.50386    -3.262932
    1.48309    -3.248598
    1.46233    -3.225728
    1.44157    -3.170833
    1.42080    -3.075344
    1.40004    -2.987128
    1.37927    -2.957103
    1.35851    -2.945415
    1.33775    -2.909750
    1.31698    -2.785148
    1.29622    -2.663053
    1.27545    -2.545773
    1.25469    -2.434378
    1.23393    -2.330066
    1.21316    -2.234603
    1.19240    -2.151672
    1.17163    -2.089523
    1.15087    -2.065074
    1.15087    -2.065074
    1.11490    -2.067822
    1.07894    -2.076790
    1.04297    -2.091884
    1.00701    -2.113269
    0.97104    -2.141174
    0.93508    -2.175767
    0.89912    -2.217051
    0.86315    -2.265423
    0.82719    -2.320167
    0.79122    -2.382156
    0.75526    -2.449663
    0.71929    -2.517436
    0.68333    -2.475356
    0.64736    -2.568329
    0.61140    -2.663133
    0.57543    -2.757773
    0.53947    -2.687288
    0.50350    -2.615834
    0.46754    -2.546636
    0.43158    -2.481946
    0.39561    -2.420170
    0.35965    -2.366904
    0.32368    -2.321036
    0.28772    -2.283583
    0.25175    -2.254270
    0.21579    -2.231849
    0.17982    -2.216168
    0.14386    -2.194742
    0.10789    -2.174080
    0.07193    -2.156879
    0.03596    -2.140291
    0.00000    -2.128698

# Band-Index    16
    0.00000    -2.097382
    0.03596    -2.073477
    0.07193    -2.019636
    0.10789    -1.961595
    0.14386    -1.911060
    0.17982    -1.872693
    0.21579    -1.842713
    0.25175    -1.828946
    0.28772    -1.829906
    0.32368    -1.843918
    0.35965    -1.871684
    0.39561    -1.911656
    0.43158    -1.962751
    0.46754    -2.021030
    0.50350    -2.086536
    0.53947    -2.156474
    0.57543    -2.229374
    0.61140    -2.303326
    0.64736    -2.377169
    0.68333    -2.448931
    0.71929    -2.385857
    0.75526    -2.300971
    0.79122    -2.221352
    0.82719    -2.148122
    0.86315    -2.082160
    0.89912    -2.036426
    0.93508    -1.995577
    0.97104    -1.948796
    1.00701    -1.900890
    1.04297    -1.863303
    1.07894    -1.842985
    1.11490    -1.831119
    1.15087    -1.827370
    1.15087    -1.827370
    1.17163    -1.855151
    1.19240    -1.912384
    1.21316    -1.985023
    1.23393    -2.068291
    1.25469    -2.159653
    1.27545    -2.257793
    1.29622    -2.361748
    1.31698    -2.470670
    1.33775    -2.583714
    1.35851    -2.699611
    1.37927    -2.815463
    1.40004    -2.915496
    1.42080    -2.956095
    1.44157    -2.974521
    1.46233    -2.991527
    1.48309    -3.009643
    1.50386    -3.029357
    1.52462    -3.050720
    1.54539    -3.073606
    1.56615    -3.097798
    1.58692    -3.122995
    1.60768    -3.148864
    1.62844    -3.174962
    1.64921    -3.200920
    1.66997    -3.226247
    1.69074    -3.250432
    1.71150    -3.272847
    1.73226    -3.292882
    1.75303    -3.309821
    1.77379    -3.322872
    1.79456    -3.331240
    1.81532    -3.334159
    1.81532    -3.334159
    1.85685    -3.321684
    1.89838    -3.284283
    1.93990    -3.225141
    1.98143    -3.149597
    2.02296    -3.062676
    2.06449    -2.968253
    2.10602    -2.869252
    2.14755    -2.767861
    2.18907    -2.665816
    2.23060    -2.564472
    2.27213    -2.465022
    2.31366    -2.368424
    2.35519    -2.275735
    2.39671    -2.187827
    2.43824    -2.105750
    2.47977    -2.031087
    2.52130    -1.965615
    2.56283    -1.910019
    2.60436    -1.863653
    2.64588    -1.825910
    2.68741    -1.798838
    2.72894    -1.781279
    2.77047    -1.774101
    2.81200    -1.775569
    2.85352    -1.788334
    2.89505    -1.810170
    2.93658    -1.844135
    2.97811    -1.886643
    3.01964    -1.940683
    3.06117    -1.998826
    3.10269    -2.063352
    3.14422    -2.097382

# Band-Index    17
    3.14422    -1.038790
    3.10269    -1.041952
    3.06117    -1.046490
    3.01964    -1.053260
    2.97811    -1.065493
    2.93658    -1.083274
    2.89505    -1.109665
    2.85352    -1.146630
    2.81200    -1.193341
    2.77047    -1.252456
    2.72894    -1.321815
    2.68741    -1.400718
    2.64588    -1.482811
    2.60436    -1.563710
    2.56283    -1.636798
    2.52130    -1.696118
    2.47977    -1.733259
    2.43824    -1.743839
    2.39671    -1.730867
    2.35519    -1.699529
    2.31366    -1.653297
    2.27213    -1.593652
    2.23060    -1.520966
    2.18907    -1.435880
    2.14755    -1.340205
    2.10602    -1.237572
    2.06449    -1.132721
    2.02296    -1.030376
    1.98143    -0.934889
    1.93990    -0.851812
    1.89838    -0.787304
    1.85685    -0.746912
    1.81532    -0.733613
    1.81532    -0.733613
    1.79456    -0.736773
    1.77379    -0.746081
    1.75303    -0.760884
    1.73226    -0.780395
    1.71150    -0.803762
    1.69074    -0.830153
    1.66997    -0.858663
    1.64921    -0.888795
    1.62844    -0.919913
    1.60768    -0.951559
    1.58692    -0.983352
    1.56615    -1.015299
    1.54539    -1.047363
    1.52462    -1.079650
    1.50386    -1.112157
    1.48309    -1.144856
    1.46233    -1.177671
    1.44157    -1.210616
    1.42080    -1.243818
    1.40004    -1.277516
    1.37927    -1.312038
    1.35851    -1.347773
    1.33775    -1.385183
    1.31698    -1.424691
    1.29622    -1.466749
    1.27545    -1.511717
    1.25469    -1.559798
    1.23393    -1.610851
    1.21316    -1.664090
    1.19240    -1.717187
    1.17163    -1.764283
    1.15087    -1.788964
    1.15087    -1.788964
    1.11490    -1.796584
    1.07894    -1.819752
    1.04297    -1.854979
    1.00701    -1.889560
    0.97104    -1.925674
    0.93508    -1.969474
    0.89912    -2.020513
    0.86315    -2.063146
    0.82719    -2.077930
    0.79122    -2.074933
    0.75526    -2.052897
    0.71929    -2.011814
    0.68333    -1.953481
    0.64736    -1.880557
    0.61140    -1.797234
    0.57543    -1.708088
    0.53947    -1.616701
    0.50350    -1.527069
    0.46754    -1.440296
    0.43158    -1.361433
    0.39561    -1.290901
    0.35965    -1.230711
    0.32368    -1.180389
    0.28772    -1.140418
    0.25175    -1.107317
    0.21579    -1.084850
    0.17982    -1.067885
    0.14386    -1.055362
    0.10789    -1.049112
    0.07193    -1.044105
    0.03596    -1.040660
    0.00000    -1.038790

# Band-Index    18
    0.00000    -0.099108
    0.03596    -0.113108
    0.07193    -0.160805
    0.10789    -0.198499
    0.14386    -0.249783
    0.17982    -0.315481
    0.21579    -0.395367
    0.25175    -0.487500
    0.28772    -0.582972
    0.32368    -0.697739
    0.35965    -0.821969
    0.39561    -0.953066
    0.43158    -1.088358
    0.46754    -1.223888
    0.50350    -1.356646
    0.53947    -1.482676
    0.57543    -1.598677
    0.61140    -1.699633
    0.64736    -1.782237
    0.68333    -1.844393
    0.71929    -1.885337
    0.75526    -1.905233
    0.79122    -1.905560
    0.82719    -1.888544
    0.86315    -1.857376
    0.89912    -1.815752
    0.93508    -1.768904
    0.97104    -1.720947
    1.00701    -1.676379
    1.04297    -1.638710
    1.07894    -1.610521
    1.11490    -1.593256
    1.15087    -1.587984
    1.15087    -1.587984
    1.17163    -1.574742
    1.19240    -1.540809
    1.21316    -1.499258
    1.23393    -1.456833
    1.25469    -1.416082
    1.27545    -1.377873
    1.29622    -1.342379
    1.31698    -1.309438
    1.33775    -1.278717
    1.35851    -1.249847
    1.37927    -1.222386
    1.40004    -1.195802
    1.42080    -1.169652
    1.44157    -1.143410
    1.46233    -1.116610
    1.48309    -1.088691
    1.50386    -1.059177
    1.52462    -1.027666
    1.54539    -0.993930
    1.56615    -0.958024
    1.58692    -0.920198
    1.60768    -0.880972
    1.62844    -0.840810
    1.64921    -0.800566
    1.66997    -0.761063
    1.69074    -0.723277
    1.71150    -0.688103
    1.73226    -0.656814
    1.75303    -0.630629
    1.77379    -0.610739
    1.79456    -0.598244
    1.81532    -0.594001
    1.81532    -0.594001
    1.85685    -0.611590
    1.89838    -0.663986
    1.93990    -0.745478
    1.98143    -0.847156
    2.02296    -0.959428
    2.06449    -1.073222
    2.10602    -1.181081
    2.14755    -1.278615
    2.18907    -1.364794
    2.23060    -1.439786
    2.27213    -1.504265
    2.31366    -1.558922
    2.35519    -1.603705
    2.39671    -1.636967
    2.43824    -1.654903
    2.47977    -1.651197
    2.52130    -1.618399
    2.56283    -1.549638
    2.60436    -1.446228
    2.64588    -1.317444
    2.68741    -1.174380
    2.72894    -1.025252
    2.77047    -0.876798
    2.81200    -0.733310
    2.85352    -0.600739
    2.89505    -0.488577
    2.93658    -0.383542
    2.97811    -0.295182
    3.01964    -0.225464
    3.06117    -0.173682
    3.10269    -0.139293
    3.14422    -0.099108

# Band-Index    19
    3.14422    2.792441
    3.10269    2.803118
    3.06117    2.828303
    3.01964    2.842415
    2.97811    2.821045
    2.93658    2.728845
    2.89505    2.606559
    2.85352    2.476837
    2.81200    2.347503
    2.77047    2.223142
    2.72894    2.107443
    2.68741    2.002819
    2.64588    1.908620
    2.60436    1.827178
    2.56283    1.759622
    2.52130    1.707338
    2.47977    1.673982
    2.43824    1.661345
    2.39671    1.670748
    2.35519    1.701583
    2.31366    1.750613
    2.27213    1.811332
    2.23060    1.873236
    2.18907    1.922069
    2.14755    1.942001
    2.10602    1.923988
    2.06449    1.870983
    2.02296    1.794021
    1.98143    1.707197
    1.93990    1.623039
    1.89838    1.553751
    1.85685    1.508544
    1.81532    1.493094
    1.81532    1.493094
    1.79456    1.496882
    1.77379    1.508072
    1.75303    1.526112
    1.73226    1.550265
    1.71150    1.579655
    1.69074    1.613389
    1.66997    1.650450
    1.64921    1.690118
    1.62844    1.731491
    1.60768    1.773916
    1.58692    1.816497
    1.56615    1.858607
    1.54539    1.899841
    1.52462    1.939523
    1.50386    1.977374
    1.48309    2.012943
    1.46233    2.045966
    1.44157    2.076386
    1.42080    2.103536
    1.40004    2.127716
    1.37927    2.148567
    1.35851    2.166372
    1.33775    2.181021
    1.31698    2.192911
    1.29622    2.202069
    1.27545    2.209033
    1.25469    2.214054
    1.23393    2.217461
    1.21316    2.219848
    1.19240    2.221321
    1.17163    2.222751
    1.15087    2.223494
    1.15087    2.223494
    1.11490    2.226977
    1.07894    2.227434
    1.04297    2.225275
    1.00701    2.221731
    0.97104    2.217804
    0.93508    2.213668
    0.89912    2.209195
    0.86315    2.203555
    0.82719    2.194718
    0.79122    2.180605
    0.75526    2.155815
    0.71929    2.125018
    0.68333    2.094005
    0.64736    2.066376
    0.61140    2.046574
    0.57543    2.037997
    0.53947    2.043569
    0.50350    2.065197
    0.46754    2.103838
    0.43158    2.159448
    0.39561    2.232047
    0.35965    2.318328
    0.32368    2.417331
    0.28772    2.523757
    0.25175    2.632546
    0.21579    2.736603
    0.17982    2.824351
    0.14386    2.852170
    0.10789    2.834508
    0.07193    2.813735
    0.03596    2.796918
    0.00000    2.792441

# Band-Index    20
    0.00000    2.834016
    0.03596    2.835286
    0.07193    2.839970
    0.10789    2.846700
    0.14386    2.864335
    0.17982    2.867432
    0.21579    2.853499
    0.25175    2.810010
    0.28772    2.740006
    0.32368    2.671273
    0.35965    2.610508
    0.39561    2.558209
    0.43158    2.511479
    0.46754    2.465294
    0.50350    2.428758
    0.53947    2.398788
    0.57543    2.356403
    0.61140    2.315698
    0.64736    2.271812
    0.68333    2.232797
    0.71929    2.204917
    0.75526    2.193886
    0.79122    2.207952
    0.82719    2.246475
    0.86315    2.305394
    0.89912    2.374603
    0.93508    2.449373
    0.97104    2.523258
    1.00701    2.592563
    1.04297    2.652259
    1.07894    2.699062
    1.11490    2.729998
    1.15087    2.742924
    1.15087    2.742924
    1.17163    2.743921
    1.19240    2.746465
    1.21316    2.750864
    1.23393    2.757153
    1.25469    2.765601
    1.27545    2.776111
    1.29622    2.788623
    1.31698    2.802918
    1.33775    2.817774
    1.35851    2.830724
    1.37927    2.830913
    1.40004    2.810679
    1.42080    2.776101
    1.44157    2.733092
    1.46233    2.684190
    1.48309    2.630886
    1.50386    2.573999
    1.52462    2.514139
    1.54539    2.452017
    1.56615    2.388217
    1.58692    2.323528
    1.60768    2.258670
    1.62844    2.194438
    1.64921    2.132034
    1.66997    2.072482
    1.69074    2.016962
    1.71150    1.966605
    1.73226    1.922830
    1.75303    1.886944
    1.77379    1.860212
    1.79456    1.843687
    1.81532    1.838097
    1.81532    1.838097
    1.85685    1.860559
    1.89838    1.924907
    1.93990    2.020897
    1.98143    2.133527
    2.02296    2.245289
    2.06449    2.340315
    2.10602    2.408418
    2.14755    2.449288
    2.18907    2.468710
    2.23060    2.464464
    2.27213    2.426872
    2.31366    2.356372
    2.35519    2.272258
    2.39671    2.197063
    2.43824    2.142275
    2.47977    2.112969
    2.52130    2.117082
    2.56283    2.142402
    2.60436    2.183863
    2.64588    2.242352
    2.68741    2.314401
    2.72894    2.395727
    2.77047    2.484986
    2.81200    2.579341
    2.85352    2.677545
    2.89505    2.765909
    2.93658    2.818451
    2.97811    2.863288
    3.01964    2.868796
    3.06117    2.841918
    3.10269    2.836006
    3.14422    2.834016

# Band-Index    21
    3.14422    3.052427
    3.10269    3.039702
    3.06117    3.002287
    3.01964    2.938745
    2.97811    2.916501
    2.93658    2.884309
    2.89505    2.802584
    2.85352    2.756420
    2.81200    2.724729
    2.77047    2.696760
    2.72894    2.643810
    2.68741    2.596223
    2.64588    2.578012
    2.60436    2.576473
    2.56283    2.494974
    2.52130    2.461689
    2.47977    2.465759
    2.43824    2.481102
    2.39671    2.500505
    2.35519    2.523842
    2.31366    2.554824
    2.27213    2.604673
    2.23060    2.686485
    2.18907    2.793572
    2.14755    2.919709
    2.10602    3.045144
    2.06449    3.119538
    2.02296    3.101848
    1.98143    3.068178
    1.93990    3.038164
    1.89838    3.013922
    1.85685    2.997683
    1.81532    2.991727
    1.81532    2.991727
    1.79456    2.993343
    1.77379    2.998303
    1.75303    3.006834
    1.73226    3.019155
    1.71150    3.035438
    1.69074    3.055832
    1.66997    3.080407
    1.64921    3.109314
    1.62844    3.142548
    1.60768    3.180070
    1.58692    3.221237
    1.56615    3.244833
    1.54539    3.202108
    1.52462    3.152676
    1.50386    3.112339
    1.48309    3.073699
    1.46233    3.037318
    1.44157    3.004230
    1.42080    2.975189
    1.40004    2.953495
    1.37927    2.944833
    1.35851    2.955852
    1.33775    2.978781
    1.31698    3.003658
    1.29622    3.027654
    1.27545    3.050314
    1.25469    3.070977
    1.23393    3.090217
    1.21316    3.108872
    1.19240    3.125573
    1.17163    3.141177
    1.15087    3.154666
    1.15087    3.154666
    1.11490    3.163674
    1.07894    3.157462
    1.04297    3.136276
    1.00701    3.100623
    0.97104    3.052339
    0.93508    2.995134
    0.89912    2.931772
    0.86315    2.866084
    0.82719    2.801726
    0.79122    2.730415
    0.75526    2.661782
    0.71929    2.591539
    0.68333    2.527605
    0.64736    2.473618
    0.61140    2.431654
    0.57543    2.412381
    0.53947    2.408362
    0.50350    2.434941
    0.46754    2.471130
    0.43158    2.524217
    0.39561    2.646852
    0.35965    2.761984
    0.32368    2.771002
    0.28772    2.859346
    0.25175    2.880002
    0.21579    2.918257
    0.17982    2.897595
    0.14386    2.917327
    0.10789    2.975862
    0.07193    3.019315
    0.03596    3.043099
    0.00000    3.052427

# Band-Index    22
    0.00000    3.108673
    0.03596    3.102572
    0.07193    3.085183
    0.10789    3.058677
    0.14386    3.023999
    0.17982    2.989952
    0.21579    2.947099
    0.25175    2.990629
    0.28772    2.876601
    0.32368    2.869008
    0.35965    2.816371
    0.39561    2.876978
    0.43158    2.877872
    0.46754    2.864792
    0.50350    2.910000
    0.53947    2.879067
    0.57543    2.800990
    0.61140    2.754087
    0.64736    2.730408
    0.68333    2.729744
    0.71929    2.746394
    0.75526    2.778614
    0.79122    2.813863
    0.82719    2.866749
    0.86315    2.924748
    0.89912    2.992655
    0.93508    3.064468
    0.97104    3.137562
    1.00701    3.210141
    1.04297    3.278708
    1.07894    3.338159
    1.11490    3.381047
    1.15087    3.401250
    1.15087    3.401250
    1.17163    3.411866
    1.19240    3.424852
    1.21316    3.440571
    1.23393    3.458702
    1.25469    3.479072
    1.27545    3.501464
    1.29622    3.525893
    1.31698    3.552170
    1.33775    3.580406
    1.35851    3.611872
    1.37927    3.657630
    1.40004    3.720899
    1.42080    3.687148
    1.44157    3.625197
    1.46233    3.559992
    1.48309    3.495924
    1.50386    3.434479
    1.52462    3.376133
    1.54539    3.313559
    1.56615    3.261958
    1.58692    3.281129
    1.60768    3.321606
    1.62844    3.361935
    1.64921    3.402340
    1.66997    3.449445
    1.69074    3.468985
    1.71150    3.453473
    1.73226    3.437238
    1.75303    3.424383
    1.77379    3.415403
    1.79456    3.410204
    1.81532    3.408521
    1.81532    3.408521
    1.85685    3.414485
    1.89838    3.428867
    1.93990    3.439756
    1.98143    3.371222
    2.02296    3.236956
    2.06449    3.136003
    2.10602    3.129056
    2.14755    3.167580
    2.18907    3.189987
    2.23060    3.175984
    2.27213    3.138215
    2.31366    3.086874
    2.35519    3.027276
    2.39671    2.965073
    2.43824    2.904760
    2.47977    2.847338
    2.52130    2.790871
    2.56283    2.715023
    2.60436    2.614783
    2.64588    2.622360
    2.68741    2.646445
    2.72894    2.670228
    2.77047    2.713930
    2.81200    2.812676
    2.85352    2.925847
    2.89505    2.988310
    2.93658    2.995329
    2.97811    2.987385
    3.01964    3.056431
    3.06117    3.083622
    3.10269    3.102143
    3.14422    3.108673

# Band-Index    23
    3.14422    3.119012
    3.10269    3.116984
    3.06117    3.123119
    3.01964    3.086840
    2.97811    3.023846
    2.93658    3.005924
    2.89505    3.004594
    2.85352    2.961884
    2.81200    2.928557
    2.77047    2.906487
    2.72894    2.900099
    2.68741    2.908725
    2.64588    2.929460
    2.60436    2.959896
    2.56283    2.999148
    2.52130    3.042228
    2.47977    3.117278
    2.43824    3.167516
    2.39671    3.223511
    2.35519    3.282509
    2.31366    3.341822
    2.27213    3.399704
    2.23060    3.463200
    2.18907    3.539694
    2.14755    3.593915
    2.10602    3.576981
    2.06449    3.552737
    2.02296    3.521586
    1.98143    3.469100
    1.93990    3.469382
    1.89838    3.530550
    1.85685    3.573543
    1.81532    3.587075
    1.81532    3.587075
    1.79456    3.583862
    1.77379    3.573757
    1.75303    3.557471
    1.73226    3.535979
    1.71150    3.510598
    1.69074    3.486584
    1.66997    3.499057
    1.64921    3.541376
    1.62844    3.579907
    1.60768    3.622283
    1.58692    3.668992
    1.56615    3.719501
    1.54539    3.772260
    1.52462    3.822977
    1.50386    3.857716
    1.48309    3.844818
    1.46233    3.800951
    1.44157    3.763525
    1.42080    3.735048
    1.40004    3.738371
    1.37927    3.841315
    1.35851    3.927943
    1.33775    3.999639
    1.31698    4.065083
    1.29622    4.118899
    1.27545    4.149126
    1.25469    4.139254
    1.23393    4.105666
    1.21316    4.083196
    1.19240    4.067261
    1.17163    4.059050
    1.15087    4.054731
    1.15087    4.054731
    1.11490    4.061544
    1.07894    4.062322
    1.04297    4.057197
    1.00701    4.045069
    0.97104    4.024586
    0.93508    3.996541
    0.89912    3.956868
    0.86315    3.907403
    0.82719    3.848296
    0.79122    3.781344
    0.75526    3.693160
    0.71929    3.603829
    0.68333    3.503480
    0.64736    3.396328
    0.61140    3.277085
    0.57543    3.147814
    0.53947    3.008037
    0.50350    2.935260
    0.46754    2.960604
    0.43158    2.953395
    0.39561    2.940151
    0.35965    3.076705
    0.32368    3.012980
    0.28772    2.974285
    0.25175    3.015226
    0.21579    2.983677
    0.17982    2.990814
    0.14386    3.071370
    0.10789    3.128339
    0.07193    3.121644
    0.03596    3.115942
    0.00000    3.119012

# Band-Index    24
    0.00000    3.264822
    0.03596    3.243999
    0.07193    3.204647
    0.10789    3.150296
    0.14386    3.128824
    0.17982    3.080494
    0.21579    3.032132
    0.25175    3.017582
    0.28772    3.096375
    0.32368    3.179069
    0.35965    3.150572
    0.39561    3.332496
    0.43158    3.457002
    0.46754    3.576452
    0.50350    3.679703
    0.53947    3.776568
    0.57543    3.864915
    0.61140    3.955692
    0.64736    4.040388
    0.68333    4.118596
    0.71929    4.190156
    0.75526    4.253922
    0.79122    4.306809
    0.82719    4.350283
    0.86315    4.383789
    0.89912    4.410472
    0.93508    4.432762
    0.97104    4.449816
    1.00701    4.467085
    1.04297    4.482455
    1.07894    4.495491
    1.11490    4.504365
    1.15087    4.509308
    1.15087    4.509308
    1.17163    4.495921
    1.19240    4.467037
    1.21316    4.424908
    1.23393    4.369111
    1.25469    4.301795
    1.27545    4.255799
    1.29622    4.249943
    1.31698    4.272271
    1.33775    4.312767
    1.35851    4.358174
    1.37927    4.353503
    1.40004    4.301671
    1.42080    4.231791
    1.44157    4.156463
    1.46233    4.078651
    1.48309    3.999373
    1.50386    3.955990
    1.52462    3.965034
    1.54539    3.995181
    1.56615    4.032050
    1.58692    4.071439
    1.60768    4.111197
    1.62844    4.150330
    1.64921    4.188484
    1.66997    4.224540
    1.69074    4.257662
    1.71150    4.287309
    1.73226    4.312849
    1.75303    4.333598
    1.77379    4.348923
    1.79456    4.358299
    1.81532    4.361166
    1.81532    4.361166
    1.85685    4.349140
    1.89838    4.308004
    1.93990    4.236949
    1.98143    4.139089
    2.02296    4.018284
    2.06449    3.886587
    2.10602    3.754356
    2.14755    3.635410
    2.18907    3.601805
    2.23060    3.598936
    2.27213    3.583521
    2.31366    3.554347
    2.35519    3.508212
    2.39671    3.448214
    2.43824    3.378558
    2.47977    3.302255
    2.52130    3.251180
    2.56283    3.184344
    2.60436    3.131204
    2.64588    3.089417
    2.68741    3.063052
    2.72894    3.048952
    2.77047    3.048701
    2.81200    3.030425
    2.85352    3.005638
    2.89505    3.028687
    2.93658    3.053714
    2.97811    3.111622
    3.01964    3.135052
    3.06117    3.176635
    3.10269    3.238358
    3.14422    3.264822

# Band-Index    25
    3.14422    3.269351
    3.10269    3.240141
    3.06117    3.205339
    3.01964    3.155725
    2.97811    3.123600
    2.93658    3.094735
    2.89505    3.113428
    2.85352    3.240866
    2.81200    3.382774
    2.77047    3.523046
    2.72894    3.675982
    2.68741    3.827765
    2.64588    3.974811
    2.60436    4.109242
    2.56283    4.233369
    2.52130    4.347326
    2.47977    4.445657
    2.43824    4.534500
    2.39671    4.611113
    2.35519    4.676847
    2.31366    4.733792
    2.27213    4.782739
    2.23060    4.828439
    2.18907    4.872339
    2.14755    4.916203
    2.10602    4.961730
    2.06449    5.008324
    2.02296    5.055970
    1.98143    5.103282
    1.93990    5.147114
    1.89838    5.183647
    1.85685    5.208131
    1.81532    5.216515
    1.81532    5.216515
    1.79456    5.214252
    1.77379    5.206752
    1.75303    5.193967
    1.73226    5.175800
    1.71150    5.152295
    1.69074    5.124006
    1.66997    5.090940
    1.64921    5.053475
    1.62844    5.011938
    1.60768    4.967411
    1.58692    4.920189
    1.56615    4.870346
    1.54539    4.818772
    1.52462    4.766020
    1.50386    4.713184
    1.48309    4.660635
    1.46233    4.609192
    1.44157    4.560890
    1.42080    4.517063
    1.40004    4.483135
    1.37927    4.471818
    1.35851    4.511588
    1.33775    4.605158
    1.31698    4.698264
    1.29622    4.752325
    1.27545    4.764516
    1.25469    4.719571
    1.23393    4.633554
    1.21316    4.597233
    1.19240    4.576642
    1.17163    4.570083
    1.15087    4.569621
    1.15087    4.569621
    1.11490    4.586602
    1.07894    4.601057
    1.04297    4.609869
    1.00701    4.608782
    0.97104    4.594019
    0.93508    4.566919
    0.89912    4.523076
    0.86315    4.471496
    0.82719    4.416874
    0.79122    4.352939
    0.75526    4.285649
    0.71929    4.212639
    0.68333    4.135472
    0.64736    4.054477
    0.61140    3.967276
    0.57543    3.872250
    0.53947    3.778673
    0.50350    3.681392
    0.46754    3.578397
    0.43158    3.479082
    0.39561    3.380709
    0.35965    3.280045
    0.32368    3.184367
    0.28772    3.168438
    0.25175    3.058228
    0.21579    3.126322
    0.17982    3.147738
    0.14386    3.145625
    0.10789    3.173827
    0.07193    3.214199
    0.03596    3.246861
    0.00000    3.269351

# Band-Index    26
    0.00000    3.690188
    0.03596    3.451042
    0.07193    3.431374
    0.10789    3.417507
    0.14386    3.388088
    0.17982    3.362028
    0.21579    3.444580
    0.25175    3.478991
    0.28772    3.552817
    0.32368    3.640997
    0.35965    3.746395
    0.39561    3.863893
    0.43158    3.975118
    0.46754    4.106242
    0.50350    4.230983
    0.53947    4.348390
    0.57543    4.442333
    0.61140    4.550909
    0.64736    4.644005
    0.68333    4.727243
    0.71929    4.805113
    0.75526    4.875941
    0.79122    4.938019
    0.82719    4.992460
    0.86315    5.039492
    0.89912    5.081582
    0.93508    5.118797
    0.97104    5.151703
    1.00701    5.179171
    1.04297    5.202300
    1.07894    5.218515
    1.11490    5.228140
    1.15087    5.230578
    1.15087    5.230578
    1.17163    5.200206
    1.19240    5.154775
    1.21316    5.093874
    1.23393    5.014696
    1.25469    4.887404
    1.27545    4.800389
    1.29622    4.772297
    1.31698    4.786939
    1.33775    4.837665
    1.35851    4.897746
    1.37927    4.963861
    1.40004    5.034161
    1.42080    5.107805
    1.44157    5.184747
    1.46233    5.263553
    1.48309    5.344053
    1.50386    5.424635
    1.52462    5.504282
    1.54539    5.581960
    1.56615    5.656846
    1.58692    5.728835
    1.60768    5.796108
    1.62844    5.858446
    1.64921    5.915979
    1.66997    5.966623
    1.69074    6.010171
    1.71150    6.046416
    1.73226    6.075901
    1.75303    6.098153
    1.77379    6.113303
    1.79456    6.121862
    1.81532    6.124249
    1.81532    6.124249
    1.85685    6.115099
    1.89838    6.085810
    1.93990    6.040038
    1.98143    5.982068
    2.02296    5.914454
    2.06449    5.842105
    2.10602    5.765276
    2.14755    5.686910
    2.18907    5.609811
    2.23060    5.535827
    2.27213    5.466561
    2.31366    5.397854
    2.35519    5.324476
    2.39671    5.245086
    2.43824    5.156091
    2.47977    5.055827
    2.52130    4.948960
    2.56283    4.823051
    2.60436    4.677405
    2.64588    4.517321
    2.68741    4.345179
    2.72894    4.163500
    2.77047    4.003285
    2.81200    3.854845
    2.85352    3.698787
    2.89505    3.584640
    2.93658    3.486479
    2.97811    3.414568
    3.01964    3.405157
    3.06117    3.436904
    3.10269    3.462522
    3.14422    3.690188

# Band-Index    27
    3.14422    4.892675
    3.10269    5.175908
    3.06117    5.278295
    3.01964    5.398549
    2.97811    5.503994
    2.93658    5.603846
    2.89505    5.706480
    2.85352    5.820141
    2.81200    5.943128
    2.77047    6.073592
    2.72894    6.188532
    2.68741    6.314378
    2.64588    6.455672
    2.60436    6.620599
    2.56283    6.806807
    2.52130    7.009032
    2.47977    7.206725
    2.43824    7.448871
    2.39671    7.653173
    2.35519    7.808725
    2.31366    7.915060
    2.27213    7.788931
    2.23060    7.646742
    2.18907    7.506975
    2.14755    7.378518
    2.10602    7.268508
    2.06449    7.178983
    2.02296    7.105459
    1.98143    7.051836
    1.93990    7.016341
    1.89838    7.009383
    1.85685    7.032582
    1.81532    7.053092
    1.81532    7.053092
    1.79456    7.047623
    1.77379    7.018983
    1.75303    6.974286
    1.73226    6.923130
    1.71150    6.868878
    1.69074    6.813106
    1.66997    6.755788
    1.64921    6.696426
    1.62844    6.635036
    1.60768    6.574388
    1.58692    6.512893
    1.56615    6.450054
    1.54539    6.387260
    1.52462    6.324001
    1.50386    6.261930
    1.48309    6.200161
    1.46233    6.139995
    1.44157    6.081169
    1.42080    6.024754
    1.40004    5.970856
    1.37927    5.919938
    1.35851    5.871139
    1.33775    5.825151
    1.31698    5.783367
    1.29622    5.745117
    1.27545    5.711370
    1.25469    5.681736
    1.23393    5.656666
    1.21316    5.637880
    1.19240    5.623511
    1.17163    5.614959
    1.15087    5.610335
    1.15087    5.610335
    1.11490    5.640944
    1.07894    5.714291
    1.04297    5.826533
    1.00701    5.972474
    0.97104    6.145700
    0.93508    6.341155
    0.89912    6.548778
    0.86315    6.766916
    0.82719    6.990608
    0.79122    7.201482
    0.75526    7.338599
    0.71929    7.265405
    0.68333    7.093255
    0.64736    6.957957
    0.61140    6.830703
    0.57543    6.708451
    0.53947    6.592879
    0.50350    6.472216
    0.46754    6.354221
    0.43158    6.244422
    0.39561    6.133086
    0.35965    6.021674
    0.32368    5.920737
    0.28772    5.824144
    0.25175    5.733561
    0.21579    5.642721
    0.17982    5.561024
    0.14386    5.472573
    0.10789    5.370483
    0.07193    5.270382
    0.03596    5.175463
    0.00000    4.892675

# Band-Index    28
    0.00000    5.492768
    0.03596    5.501004
    0.07193    5.521802
    0.10789    5.552579
    0.14386    5.620703
    0.17982    5.705306
    0.21579    5.745221
    0.25175    5.824959
    0.28772    5.910418
    0.32368    5.999141
    0.35965    6.093550
    0.39561    6.191310
    0.43158    6.307324
    0.46754    6.425230
    0.50350    6.544591
    0.53947    6.675620
    0.57543    6.793177
    0.61140    6.954652
    0.64736    7.122577
    0.68333    7.328500
    0.71929    7.534656
    0.75526    7.556099
    0.79122    7.594296
    0.82719    7.653886
    0.86315    7.523081
    0.89912    7.347124
    0.93508    7.158162
    0.97104    6.972848
    1.00701    6.805898
    1.04297    6.666938
    1.07894    6.564465
    1.11490    6.504495
    1.15087    6.489655
    1.15087    6.489655
    1.17163    6.496997
    1.19240    6.505075
    1.21316    6.519011
    1.23393    6.537558
    1.25469    6.561127
    1.27545    6.585020
    1.29622    6.614864
    1.31698    6.650022
    1.33775    6.686104
    1.35851    6.725027
    1.37927    6.766105
    1.40004    6.808940
    1.42080    6.851291
    1.44157    6.897258
    1.46233    6.945102
    1.48309    6.996048
    1.50386    7.049734
    1.52462    7.102910
    1.54539    7.162816
    1.56615    7.222741
    1.58692    7.287738
    1.60768    7.355064
    1.62844    7.430337
    1.64921    7.518610
    1.66997    7.582533
    1.69074    7.577536
    1.71150    7.518747
    1.73226    7.442360
    1.75303    7.366178
    1.77379    7.300923
    1.79456    7.258189
    1.81532    7.245096
    1.81532    7.245096
    1.85685    7.299777
    1.89838    7.391990
    1.93990    7.482465
    1.98143    7.566133
    2.02296    7.637223
    2.06449    7.725030
    2.10602    7.823515
    2.14755    7.926030
    2.18907    8.035711
    2.23060    8.110764
    2.27213    8.103644
    2.31366    7.997186
    2.35519    7.960880
    2.39671    7.764007
    2.43824    7.474329
    2.47977    7.226190
    2.52130    7.010377
    2.56283    6.827092
    2.60436    6.654700
    2.64588    6.499105
    2.68741    6.349584
    2.72894    6.208474
    2.77047    6.082405
    2.81200    5.985738
    2.85352    5.890726
    2.89505    5.798223
    2.93658    5.716611
    2.97811    5.666361
    3.01964    5.588676
    3.06117    5.537902
    3.10269    5.502323
    3.14422    5.492768

# Band-Index    29
    3.14422    6.494313
    3.10269    6.583423
    3.06117    6.758665
    3.01964    6.986917
    2.97811    7.214141
    2.93658    7.491243
    2.89505    7.813093
    2.85352    8.164166
    2.81200    8.484208
    2.77047    8.753612
    2.72894    8.961252
    2.68741    9.065002
    2.64588    9.109108
    2.60436    9.064300
    2.56283    8.986293
    2.52130    8.852331
    2.47977    8.672066
    2.43824    8.433394
    2.39671    8.193053
    2.35519    8.167003
    2.31366    8.344575
    2.27213    8.503443
    2.23060    8.621606
    2.18907    8.603235
    2.14755    8.449109
    2.10602    8.248976
    2.06449    8.059507
    2.02296    7.898314
    1.98143    7.781137
    1.93990    7.730206
    1.89838    7.726395
    1.85685    7.740491
    1.81532    7.729086
    1.81532    7.729086
    1.79456    7.734562
    1.77379    7.730343
    1.75303    7.713104
    1.73226    7.684077
    1.71150    7.645855
    1.69074    7.629987
    1.66997    7.669532
    1.64921    7.781223
    1.62844    7.922666
    1.60768    8.065796
    1.58692    8.209611
    1.56615    8.354119
    1.54539    8.500074
    1.52462    8.646696
    1.50386    8.794038
    1.48309    8.940109
    1.46233    9.083104
    1.44157    9.219424
    1.42080    9.329072
    1.40004    9.330228
    1.37927    9.200244
    1.35851    9.099567
    1.33775    9.006564
    1.31698    8.920087
    1.29622    8.839323
    1.27545    8.762884
    1.25469    8.692620
    1.23393    8.626524
    1.21316    8.582095
    1.19240    8.538363
    1.17163    8.509335
    1.15087    8.473171
    1.15087    8.473171
    1.11490    8.466868
    1.07894    8.394365
    1.04297    8.292001
    1.00701    8.191591
    0.97104    8.092246
    0.93508    7.993614
    0.89912    7.885168
    0.86315    7.776391
    0.82719    7.675682
    0.79122    7.681789
    0.75526    7.592613
    0.71929    7.629797
    0.68333    7.911987
    0.64736    8.144883
    0.61140    8.328674
    0.57543    8.482751
    0.53947    8.621355
    0.50350    8.707460
    0.46754    8.757527
    0.43158    8.756736
    0.39561    8.669361
    0.35965    8.517755
    0.32368    8.302952
    0.28772    8.054734
    0.25175    7.762282
    0.21579    7.515946
    0.17982    7.274812
    0.14386    7.092324
    0.10789    6.892598
    0.07193    6.701469
    0.03596    6.560146
    0.00000    6.494313

# Band-Index    30
    0.00000    7.287961
    0.03596    7.288460
    0.07193    7.400387
    0.10789    7.551483
    0.14386    7.743105
    0.17982    7.971202
    0.21579    8.214163
    0.25175    8.497755
    0.28772    8.800060
    0.32368    9.060471
    0.35965    9.209948
    0.39561    9.423674
    0.43158    9.555797
    0.46754    9.441032
    0.50350    9.545019
    0.53947    9.534091
    0.57543    9.403718
    0.61140    9.266939
    0.64736    9.087998
    0.68333    8.863350
    0.71929    8.609858
    0.75526    8.366701
    0.79122    8.191910
    0.82719    8.130811
    0.86315    8.175057
    0.89912    8.262237
    0.93508    8.367300
    0.97104    8.460867
    1.00701    8.546601
    1.04297    8.552413
    1.07894    8.617163
    1.11490    8.695537
    1.15087    8.627841
    1.15087    8.627841
    1.17163    8.619059
    1.19240    8.611019
    1.21316    8.640733
    1.23393    8.755270
    1.25469    9.041552
    1.27545    9.224402
    1.29622    9.289389
    1.31698    9.365977
    1.33775    9.429735
    1.35851    9.514734
    1.37927    9.548321
    1.40004    9.448273
    1.42080    9.417074
    1.44157    9.466600
    1.46233    9.517651
    1.48309    9.564741
    1.50386    9.587251
    1.52462    9.559659
    1.54539    9.487331
    1.56615    9.382088
    1.58692    9.261794
    1.60768    9.133614
    1.62844    9.004626
    1.64921    8.880557
    1.66997    8.757329
    1.69074    8.640407
    1.71150    8.533359
    1.73226    8.444267
    1.75303    8.375852
    1.77379    8.328807
    1.79456    8.305998
    1.81532    8.302743
    1.81532    8.302743
    1.85685    8.303743
    1.89838    8.368551
    1.93990    8.465650
    1.98143    8.573646
    2.02296    8.664627
    2.06449    8.735611
    2.10602    8.776272
    2.14755    8.776849
    2.18907    8.758537
    2.23060    8.765065
    2.27213    8.816753
    2.31366    8.895563
    2.35519    9.017521
    2.39671    9.175999
    2.43824    9.332098
    2.47977    9.459620
    2.52130    9.569529
    2.56283    9.662792
    2.60436    9.700556
    2.64588    9.682485
    2.68741    9.628514
    2.72894    9.516638
    2.77047    9.350107
    2.81200    9.120305
    2.85352    8.823909
    2.89505    8.490016
    2.93658    8.166694
    2.97811    7.891827
    3.01964    7.648045
    3.06117    7.449243
    3.10269    7.308057
    3.14422    7.287961

# Band-Index    31
    3.14422    8.642866
    3.10269    8.818272
    3.06117    8.997998
    3.01964    8.884510
    2.97811    8.854591
    2.93658    8.859384
    2.89505    8.971379
    2.85352    9.139017
    2.81200    9.328299
    2.77047    9.516131
    2.72894    10.074828
    2.68741    9.823886
    2.64588    9.701213
    2.60436    9.941762
    2.56283    10.683067
    2.52130    10.765865
    2.47977    10.751880
    2.43824    10.736782
    2.39671    10.543880
    2.35519    10.154729
    2.31366    9.700538
    2.27213    9.301982
    2.23060    9.062944
    2.18907    9.089229
    2.14755    9.250573
    2.10602    9.563371
    2.06449    9.814098
    2.02296    9.909279
    1.98143    9.967723
    1.93990    9.998712
    1.89838    10.002761
    1.85685    9.992170
    1.81532    9.970990
    1.81532    9.970990
    1.79456    9.975971
    1.77379    9.981132
    1.75303    9.982040
    1.73226    9.979073
    1.71150    9.968780
    1.69074    9.968349
    1.66997    9.960946
    1.64921    9.949644
    1.62844    9.926354
    1.60768    9.913334
    1.58692    9.903064
    1.56615    9.889208
    1.54539    9.885809
    1.52462    9.896860
    1.50386    9.921501
    1.48309    9.861091
    1.46233    9.767298
    1.44157    9.697413
    1.42080    9.636217
    1.40004    9.596834
    1.37927    9.593977
    1.35851    9.649871
    1.33775    9.652376
    1.31698    9.564887
    1.29622    9.452330
    1.27545    9.349011
    1.25469    9.148756
    1.23393    9.065661
    1.21316    9.000398
    1.19240    8.922406
    1.17163    8.871571
    1.15087    8.785473
    1.15087    8.785473
    1.11490    8.832227
    1.07894    8.645071
    1.04297    8.609968
    1.00701    8.598752
    0.97104    8.658602
    0.93508    8.705808
    0.89912    8.729053
    0.86315    8.793216
    0.82719    8.976831
    0.79122    9.082547
    0.75526    9.184890
    0.71929    9.292488
    0.68333    9.443943
    0.64736    9.643776
    0.61140    9.827402
    0.57543    9.890692
    0.53947    9.706334
    0.50350    9.592015
    0.46754    9.595496
    0.43158    9.635353
    0.39561    9.573120
    0.35965    9.270465
    0.32368    9.091170
    0.28772    9.054872
    0.25175    8.941106
    0.21579    8.907842
    0.17982    8.944981
    0.14386    8.987254
    0.10789    9.010969
    0.07193    9.003793
    0.03596    8.782046
    0.00000    8.642866

# Band-Index    32
    0.00000    9.233853
    0.03596    9.100887
    0.07193    9.074367
    0.10789    9.283444
    0.14386    9.621665
    0.17982    10.003741
    0.21579    10.427623
    0.25175    10.755860
    0.28772    10.777299
    0.32368    10.770249
    0.35965    10.740639
    0.39561    10.380945
    0.43158    10.225157
    0.46754    10.339505
    0.50350    10.247334
    0.53947    10.109792
    0.57543    9.954449
    0.61140    9.934520
    0.64736    9.907248
    0.68333    9.785494
    0.71929    9.608681
    0.75526    9.455202
    0.79122    9.307443
    0.82719    9.180386
    0.86315    9.057191
    0.89912    8.974524
    0.93508    8.990619
    0.97104    9.119905
    1.00701    9.431852
    1.04297    9.613068
    1.07894    9.439298
    1.11490    8.992410
    1.15087    8.873363
    1.15087    8.873363
    1.17163    8.949048
    1.19240    9.006836
    1.21316    9.094340
    1.23393    9.166436
    1.25469    9.261285
    1.27545    9.586778
    1.29622    9.970710
    1.31698    9.973120
    1.33775    9.881811
    1.35851    9.835442
    1.37927    9.859667
    1.40004    9.929097
    1.42080    10.014062
    1.44157    10.051493
    1.46233    10.018069
    1.48309    9.982385
    1.50386    9.928487
    1.52462    9.972963
    1.54539    10.067302
    1.56615    10.159663
    1.58692    10.236379
    1.60768    10.281098
    1.62844    10.302603
    1.64921    10.365600
    1.66997    10.395387
    1.69074    10.415492
    1.71150    10.420210
    1.73226    10.447102
    1.75303    10.453810
    1.77379    10.447075
    1.79456    10.433771
    1.81532    10.410405
    1.81532    10.410405
    1.85685    10.507873
    1.89838    10.603466
    1.93990    10.639494
    1.98143    10.645935
    2.02296    10.319475
    2.06449    10.161660
    2.10602    10.186284
    2.14755    10.302377
    2.18907    10.436899
    2.23060    10.348088
    2.27213    10.340611
    2.31366    10.573528
    2.35519    10.899372
    2.39671    10.883267
    2.43824    11.121801
    2.47977    11.016023
    2.52130    11.172323
    2.56283    10.805762
    2.60436    10.766822
    2.64588    10.717499
    2.68741    10.447810
    2.72894    10.100737
    2.77047    10.460296
    2.81200    10.501495
    2.85352    10.590464
    2.89505    10.535280
    2.93658    10.154124
    2.97811    9.837450
    3.01964    9.488874
    3.06117    9.096165
    3.10269    9.076662
    3.14422    9.233853

# Band-Index    33
    3.14422    10.173408
    3.10269    10.383014
    3.06117    10.737737
    3.01964    10.862250
    2.97811    10.967913
    2.93658    11.206561
    2.89505    10.932262
    2.85352    10.875303
    2.81200    10.806161
    2.77047    10.643767
    2.72894    10.487947
    2.68741    10.588439
    2.64588    10.774175
    2.60436    11.133185
    2.56283    11.589868
    2.52130    11.496993
    2.47977    11.204228
    2.43824    11.247347
    2.39671    11.316770
    2.35519    10.926907
    2.31366    10.921966
    2.27213    10.718210
    2.23060    10.556052
    2.18907    10.444242
    2.14755    10.322499
    2.10602    10.504649
    2.06449    10.704527
    2.02296    10.766617
    1.98143    10.652285
    1.93990    10.784344
    1.89838    11.081614
    1.85685    11.206098
    1.81532    11.156513
    1.81532    11.156513
    1.79456    11.169671
    1.77379    11.135520
    1.75303    11.077897
    1.73226    10.997432
    1.71150    10.903482
    1.69074    10.798738
    1.66997    10.688012
    1.64921    10.572917
    1.62844    10.471391
    1.60768    10.368418
    1.58692    10.286009
    1.56615    10.220782
    1.54539    10.163646
    1.52462    10.112231
    1.50386    10.069260
    1.48309    10.029245
    1.46233    10.064162
    1.44157    10.081866
    1.42080    10.157236
    1.40004    10.268828
    1.37927    10.351420
    1.35851    10.383634
    1.33775    10.198480
    1.31698    10.010249
    1.29622    10.065074
    1.27545    10.195883
    1.25469    10.403635
    1.23393    10.419898
    1.21316    10.402864
    1.19240    10.348404
    1.17163    10.319127
    1.15087    10.279130
    1.15087    10.279130
    1.11490    10.275231
    1.07894    9.977052
    1.04297    9.979607
    1.00701    10.259248
    0.97104    10.458687
    0.93508    10.508687
    0.89912    10.264967
    0.86315    10.055477
    0.82719    10.055537
    0.79122    9.976738
    0.75526    9.945091
    0.71929    9.950762
    0.68333    10.073898
    0.64736    9.997882
    0.61140    10.112595
    0.57543    10.227154
    0.53947    10.420198
    0.50350    10.593037
    0.46754    10.719822
    0.43158    10.864723
    0.39561    10.865156
    0.35965    10.799144
    0.32368    10.899065
    0.28772    10.936019
    0.25175    10.780387
    0.21579    10.954472
    0.17982    10.993269
    0.14386    10.888801
    0.10789    10.894536
    0.07193    10.628852
    0.03596    10.344345
    0.00000    10.173408

# Band-Index    34
    0.00000    10.756131
    0.03596    10.623945
    0.07193    10.743395
    0.10789    10.917675
    0.14386    11.144315
    0.17982    11.152151
    0.21579    11.150826
    0.25175    11.269532
    0.28772    11.277819
    0.32368    11.194148
    0.35965    11.163681
    0.39561    11.254182
    0.43158    11.352631
    0.46754    11.257482
    0.50350    11.156989
    0.53947    10.954190
    0.57543    10.524478
    0.61140    10.473458
    0.64736    10.321203
    0.68333    10.151503
    0.71929    10.916123
    0.75526    11.534126
    0.79122    11.124341
    0.82719    11.351690
    0.86315    11.509387
    0.89912    11.250578
    0.93508    10.878824
    0.97104    10.671900
    1.00701    10.452578
    1.04297    10.418784
    1.07894    10.467504
    1.11490    10.401854
    1.15087    10.498534
    1.15087    10.498534
    1.17163    10.597300
    1.19240    10.567387
    1.21316    10.450149
    1.23393    10.446287
    1.25469    10.451435
    1.27545    10.244677
    1.29622    10.103028
    1.31698    10.263232
    1.33775    10.353167
    1.35851    10.401430
    1.37927    10.514977
    1.40004    10.674550
    1.42080    10.750232
    1.44157    10.852091
    1.46233    10.959341
    1.48309    11.007113
    1.50386    11.085672
    1.52462    11.097061
    1.54539    11.145842
    1.56615    11.254918
    1.58692    11.181216
    1.60768    11.084580
    1.62844    11.139823
    1.64921    11.227301
    1.66997    11.282659
    1.69074    11.280374
    1.71150    11.270598
    1.73226    11.282314
    1.75303    11.321762
    1.77379    11.326405
    1.79456    11.327678
    1.81532    11.308826
    1.81532    11.308826
    1.85685    11.401129
    1.89838    11.398056
    1.93990    11.296611
    1.98143    11.179519
    2.02296    11.043370
    2.06449    11.091862
    2.10602    11.286016
    2.14755    11.379620
    2.18907    11.476620
    2.23060    11.488872
    2.27213    11.490545
    2.31366    11.586693
    2.35519    11.504579
    2.39671    11.342617
    2.43824    11.352793
    2.47977    11.731299
    2.52130    11.508044
    2.56283    11.933661
    2.60436    12.297061
    2.64588    12.420654
    2.68741    12.325352
    2.72894    12.034010
    2.77047    11.764511
    2.81200    11.577770
    2.85352    11.486445
    2.89505    11.440383
    2.93658    11.251855
    2.97811    11.277908
    3.01964    11.136090
    3.06117    10.820403
    3.10269    10.612674
    3.14422    10.756131

# Band-Index    35
    3.14422    11.425610
    3.10269    11.260001
    3.06117    11.058162
    3.01964    11.242626
    2.97811    11.728735
    2.93658    11.513390
    2.89505    11.519162
    2.85352    11.738693
    2.81200    12.122258
    2.77047    12.310499
    2.72894    12.598512
    2.68741    12.741239
    2.64588    12.725737
    2.60436    12.650632
    2.56283    11.935664
    2.52130    11.859050
    2.47977    11.883925
    2.43824    11.675165
    2.39671    11.554346
    2.35519    12.267084
    2.31366    12.927433
    2.27213    13.153064
    2.23060    13.348331
    2.18907    13.337235
    2.14755    13.261358
    2.10602    13.144538
    2.06449    12.898734
    2.02296    12.630609
    1.98143    12.400753
    1.93990    12.189210
    1.89838    11.987618
    1.85685    11.895333
    1.81532    11.934783
    1.81532    11.934783
    1.79456    11.942971
    1.77379    11.911469
    1.75303    11.932492
    1.73226    11.933190
    1.71150    11.876415
    1.69074    11.818191
    1.66997    11.750989
    1.64921    11.681379
    1.62844    11.605138
    1.60768    11.550533
    1.58692    11.438189
    1.56615    11.306785
    1.54539    11.303248
    1.52462    11.251105
    1.50386    11.192958
    1.48309    11.125018
    1.46233    11.055303
    1.44157    10.877042
    1.42080    10.772750
    1.40004    10.703502
    1.37927    10.683191
    1.35851    10.473549
    1.33775    10.397551
    1.31698    10.472518
    1.29622    10.517853
    1.27545    10.454658
    1.25469    10.477805
    1.23393    10.536936
    1.21316    10.589566
    1.19240    10.595446
    1.17163    10.601403
    1.15087    10.530995
    1.15087    10.530995
    1.11490    10.738221
    1.07894    11.115197
    1.04297    11.194042
    1.00701    11.463595
    0.97104    11.547890
    0.93508    11.422455
    0.89912    11.403781
    0.86315    11.592786
    0.82719    11.650052
    0.79122    11.751193
    0.75526    11.666933
    0.71929    11.938444
    0.68333    12.471828
    0.64736    12.659236
    0.61140    12.812318
    0.57543    12.491472
    0.53947    12.313262
    0.50350    11.911546
    0.46754    11.650098
    0.43158    11.804302
    0.39561    11.857357
    0.35965    11.892732
    0.32368    11.859272
    0.28772    11.715538
    0.25175    11.465246
    0.21579    11.544821
    0.17982    11.529243
    0.14386    11.246006
    0.10789    10.987851
    0.07193    11.171411
    0.03596    11.307879
    0.00000    11.425610

# Band-Index    36
    0.00000    11.452826
    0.03596    11.616472
    0.07193    11.856819
    0.10789    11.868141
    0.14386    11.829938
    0.17982    11.699844
    0.21579    11.805390
    0.25175    11.999529
    0.28772    12.171278
    0.32368    12.223078
    0.35965    12.369247
    0.39561    12.696912
    0.43158    12.871179
    0.46754    12.930887
    0.50350    12.955536
    0.53947    12.792456
    0.57543    12.845987
    0.61140    12.989520
    0.64736    12.914928
    0.68333    12.745912
    0.71929    12.314603
    0.75526    11.820697
    0.79122    11.999291
    0.82719    11.852026
    0.86315    11.668205
    0.89912    11.602848
    0.93508    11.727579
    0.97104    11.718590
    1.00701    11.550484
    1.04297    11.426151
    1.07894    11.177673
    1.11490    11.109770
    1.15087    10.872695
    1.15087    10.872695
    1.17163    10.717262
    1.19240    10.604242
    1.21316    10.636080
    1.23393    10.582008
    1.25469    10.526204
    1.27545    10.527042
    1.29622    10.583577
    1.31698    10.795309
    1.33775    10.735157
    1.35851    10.692197
    1.37927    10.690735
    1.40004    10.831243
    1.42080    10.924134
    1.44157    10.969434
    1.46233    11.056909
    1.48309    11.142143
    1.50386    11.252058
    1.52462    11.355218
    1.54539    11.442397
    1.56615    11.504732
    1.58692    11.613261
    1.60768    11.680934
    1.62844    11.714126
    1.64921    11.785776
    1.66997    11.898083
    1.69074    11.976578
    1.71150    12.042015
    1.73226    12.094370
    1.75303    12.111570
    1.77379    12.131954
    1.79456    12.117009
    1.81532    12.084889
    1.81532    12.084889
    1.85685    12.202082
    1.89838    12.309268
    1.93990    12.441030
    1.98143    12.655533
    2.02296    12.859873
    2.06449    13.062405
    2.10602    13.246091
    2.14755    13.261573
    2.18907    13.513910
    2.23060    13.498694
    2.27213    13.398662
    2.31366    13.399047
    2.35519    13.210196
    2.39671    13.166112
    2.43824    13.101926
    2.47977    13.060762
    2.52130    13.048169
    2.56283    12.995136
    2.60436    12.871206
    2.64588    12.875996
    2.68741    12.827113
    2.72894    12.700523
    2.77047    12.551999
    2.81200    12.365379
    2.85352    12.421313
    2.89505    12.687501
    2.93658    12.111043
    2.97811    12.010492
    3.01964    11.861519
    3.06117    11.821375
    3.10269    11.631583
    3.14422    11.452826

# Band-Index    37
    3.14422    13.046541
    3.10269    13.143842
    3.06117    13.052814
    3.01964    12.882972
    2.97811    12.168721
    2.93658    12.490740
    2.89505    12.978609
    2.85352    12.492971
    2.81200    12.411778
    2.77047    12.779997
    2.72894    13.121981
    2.68741    13.250758
    2.64588    13.282028
    2.60436    13.328043
    2.56283    13.270293
    2.52130    13.268902
    2.47977    13.455669
    2.43824    13.406822
    2.39671    13.337952
    2.35519    13.559475
    2.31366    13.545856
    2.27213    13.547569
    2.23060    13.510075
    2.18907    13.519680
    2.14755    13.339194
    2.10602    13.260385
    2.06449    13.150968
    2.02296    12.988401
    1.98143    12.890761
    1.93990    12.772522
    1.89838    12.664400
    1.85685    12.457499
    1.81532    12.284151
    1.81532    12.284151
    1.79456    12.323991
    1.77379    12.364285
    1.75303    12.424807
    1.73226    12.494044
    1.71150    12.497547
    1.69074    12.518600
    1.66997    12.486771
    1.64921    12.408831
    1.62844    12.345986
    1.60768    12.267274
    1.58692    12.192421
    1.56615    12.029574
    1.54539    11.903588
    1.52462    11.741644
    1.50386    11.517508
    1.48309    11.245779
    1.46233    11.063793
    1.44157    10.999764
    1.42080    10.928166
    1.40004    10.888819
    1.37927    10.874510
    1.35851    10.892458
    1.33775    10.897433
    1.31698    10.861755
    1.29622    11.007146
    1.27545    11.150682
    1.25469    11.221298
    1.23393    11.304976
    1.21316    11.360634
    1.19240    11.405713
    1.17163    11.472613
    1.15087    11.449663
    1.15087    11.449663
    1.11490    11.329042
    1.07894    11.320351
    1.04297    11.467055
    1.00701    11.615223
    0.97104    11.744488
    0.93508    11.816906
    0.89912    12.033251
    0.86315    12.193256
    0.82719    12.465788
    0.79122    12.443956
    0.75526    12.456589
    0.71929    12.652646
    0.68333    12.827707
    0.64736    12.968746
    0.61140    13.007114
    0.57543    13.319078
    0.53947    13.544001
    0.50350    13.533689
    0.46754    13.420664
    0.43158    13.379665
    0.39561    13.331424
    0.35965    13.177819
    0.32368    12.922925
    0.28772    12.775957
    0.25175    12.684152
    0.21579    12.646956
    0.17982    12.678429
    0.14386    12.785097
    0.10789    13.066442
    0.07193    13.075598
    0.03596    13.210208
    0.00000    13.046541

# Band-Index    38
    0.00000    13.587950
    0.03596    13.351410
    0.07193    13.332856
    0.10789    13.336405
    0.14386    13.318811
    0.17982    13.262882
    0.21579    13.324830
    0.25175    12.720516
    0.28772    12.923813
    0.32368    13.123565
    0.35965    13.510839
    0.39561    13.429210
    0.43158    13.663224
    0.46754    13.671689
    0.50350    13.688063
    0.53947    13.638224
    0.57543    13.438881
    0.61140    13.369881
    0.64736    13.355490
    0.68333    13.487538
    0.71929    13.598218
    0.75526    13.377560
    0.79122    12.988717
    0.82719    12.613795
    0.86315    12.554883
    0.89912    12.042325
    0.93508    12.014460
    0.97104    11.909417
    1.00701    11.669590
    1.04297    11.621401
    1.07894    11.606587
    1.11490    11.544932
    1.15087    11.489373
    1.15087    11.489373
    1.17163    11.531402
    1.19240    11.533699
    1.21316    11.525747
    1.23393    11.463130
    1.25469    11.454922
    1.27545    11.447893
    1.29622    11.456619
    1.31698    11.489392
    1.33775    11.515249
    1.35851    11.584681
    1.37927    11.650190
    1.40004    11.692507
    1.42080    11.801097
    1.44157    11.893508
    1.46233    11.924837
    1.48309    12.014643
    1.50386    12.070579
    1.52462    12.143661
    1.54539    12.213490
    1.56615    12.259907
    1.58692    12.337627
    1.60768    12.359793
    1.62844    12.404666
    1.64921    12.571981
    1.66997    12.659308
    1.69074    12.645447
    1.71150    12.574698
    1.73226    12.570431
    1.75303    12.548215
    1.77379    12.534054
    1.79456    12.499378
    1.81532    12.430079
    1.81532    12.430079
    1.85685    12.626281
    1.89838    12.737042
    1.93990    12.813778
    1.98143    12.911937
    2.02296    13.056607
    2.06449    13.375022
    2.10602    13.286579
    2.14755    13.379572
    2.18907    13.524657
    2.23060    13.727559
    2.27213    13.572713
    2.31366    13.710360
    2.35519    13.647484
    2.39671    13.706361
    2.43824    13.606273
    2.47977    13.613975
    2.52130    13.551625
    2.56283    13.424184
    2.60436    13.383151
    2.64588    13.368969
    2.68741    13.285445
    2.72894    13.418401
    2.77047    13.719512
    2.81200    13.697083
    2.85352    13.456195
    2.89505    13.150530
    2.93658    13.017233
    2.97811    12.897538
    3.01964    13.065499
    3.06117    14.027871
    3.10269    13.578049
    3.14422    13.587950

# Band-Index    39
    3.14422    14.178916
    3.10269    14.407747
    3.06117    14.181837
    3.01964    14.884918
    2.97811    14.910666
    2.93658    14.483856
    2.89505    13.357625
    2.85352    13.817460
    2.81200    13.894724
    2.77047    13.896405
    2.72894    14.143622
    2.68741    14.125328
    2.64588    13.932382
    2.60436    13.850402
    2.56283    13.815837
    2.52130    13.843788
    2.47977    14.020415
    2.43824    13.986046
    2.39671    13.951663
    2.35519    13.985224
    2.31366    13.973558
    2.27213    13.977287
    2.23060    13.934957
    2.18907    14.318909
    2.14755    14.203096
    2.10602    13.847843
    2.06449    13.449641
    2.02296    13.392367
    1.98143    13.213907
    1.93990    13.023765
    1.89838    12.814181
    1.85685    12.791297
    1.81532    12.676252
    1.81532    12.676252
    1.79456    12.757783
    1.77379    12.776009
    1.75303    12.832168
    1.73226    12.882297
    1.71150    12.914808
    1.69074    12.953068
    1.66997    12.961293
    1.64921    12.989506
    1.62844    13.046952
    1.60768    13.087778
    1.58692    13.100074
    1.56615    13.036622
    1.54539    12.972171
    1.52462    12.876399
    1.50386    12.820029
    1.48309    12.753971
    1.46233    12.701210
    1.44157    12.637485
    1.42080    12.559667
    1.40004    12.456002
    1.37927    12.362568
    1.35851    12.316637
    1.33775    12.272993
    1.31698    12.217209
    1.29622    12.175655
    1.27545    12.128413
    1.25469    12.105433
    1.23393    12.080268
    1.21316    12.064044
    1.19240    12.056249
    1.17163    11.987799
    1.15087    11.994605
    1.15087    11.994605
    1.11490    12.146037
    1.07894    12.218410
    1.04297    12.163335
    1.00701    12.247713
    0.97104    12.078653
    0.93508    12.352908
    0.89912    12.698497
    0.86315    12.573714
    0.82719    13.263706
    0.79122    13.375611
    0.75526    13.437196
    0.71929    13.721058
    0.68333    14.332237
    0.64736    14.654543
    0.61140    14.915796
    0.57543    14.985562
    0.53947    14.900282
    0.50350    14.918095
    0.46754    14.737398
    0.43158    14.466177
    0.39561    14.091238
    0.35965    13.515035
    0.32368    13.793342
    0.28772    14.032011
    0.25175    14.009560
    0.21579    13.637203
    0.17982    14.242133
    0.14386    14.656023
    0.10789    14.623573
    0.07193    14.716783
    0.03596    14.386245
    0.00000    14.178916

# Band-Index    40
    0.00000    14.799251
    0.03596    14.805680
    0.07193    15.011717
    0.10789    14.680083
    0.14386    14.790178
    0.17982    14.848613
    0.21579    15.060826
    0.25175    15.174874
    0.28772    15.336951
    0.32368    15.340260
    0.35965    15.188448
    0.39561    14.806629
    0.43158    14.483666
    0.46754    14.754410
    0.50350    15.200448
    0.53947    14.990297
    0.57543    15.271192
    0.61140    15.403296
    0.64736    15.361237
    0.68333    14.627655
    0.71929    14.478121
    0.75526    14.306996
    0.79122    13.915785
    0.82719    13.292084
    0.86315    13.186410
    0.89912    13.153991
    0.93508    13.011240
    0.97104    12.680179
    1.00701    12.518923
    1.04297    12.549481
    1.07894    12.380731
    1.11490    12.343844
    1.15087    12.434761
    1.15087    12.434761
    1.17163    12.416803
    1.19240    12.386514
    1.21316    12.356075
    1.23393    12.294524
    1.25469    12.263105
    1.27545    12.285168
    1.29622    12.336594
    1.31698    12.374480
    1.33775    12.464820
    1.35851    12.548900
    1.37927    12.690668
    1.40004    12.808246
    1.42080    12.945547
    1.44157    13.094997
    1.46233    13.121454
    1.48309    13.187102
    1.50386    13.239810
    1.52462    13.244567
    1.54539    13.272824
    1.56615    13.243697
    1.58692    13.249177
    1.60768    13.184061
    1.62844    13.155976
    1.64921    13.177969
    1.66997    13.163051
    1.69074    13.193545
    1.71150    13.172530
    1.73226    13.139803
    1.75303    13.046528
    1.77379    12.909046
    1.79456    12.776333
    1.81532    12.746632
    1.81532    12.746632
    1.85685    12.900113
    1.89838    13.105290
    1.93990    13.235439
    1.98143    13.443683
    2.02296    13.631987
    2.06449    13.863203
    2.10602    14.107004
    2.14755    14.328060
    2.18907    14.507885
    2.23060    14.593541
    2.27213    14.245937
    2.31366    14.147509
    2.35519    14.277599
    2.39671    14.792851
    2.43824    14.986038
    2.47977    15.114128
    2.52130    15.163411
    2.56283    15.142005
    2.60436    14.620443
    2.64588    14.530957
    2.68741    14.783727
    2.72894    14.656481
    2.77047    15.089701
    2.81200    15.172106
    2.85352    15.429036
    2.89505    15.581013
    2.93658    15.340893
    2.97811    15.076830
    3.01964    14.981327
    3.06117    14.775649
    3.10269    14.777080
    3.14422    14.799251

# Band-Index    41
    3.14422    15.093130
    3.10269    14.804949
    3.06117    15.170743
    3.01964    15.407213
    2.97811    15.664117
    2.93658    15.730937
    2.89505    15.674542
    2.85352    15.461162
    2.81200    15.488054
    2.77047    15.113295
    2.72894    15.144708
    2.68741    14.789496
    2.64588    15.040536
    2.60436    15.212810
    2.56283    15.221848
    2.52130    15.296415
    2.47977    15.816834
    2.43824    15.776542
    2.39671    15.594970
    2.35519    15.474250
    2.31366    15.152130
    2.27213    14.834400
    2.23060    14.635002
    2.18907    14.515125
    2.14755    14.359826
    2.10602    14.349308
    2.06449    14.240104
    2.02296    14.032595
    1.98143    13.844219
    1.93990    13.617067
    1.89838    13.437292
    1.85685    13.233781
    1.81532    13.026941
    1.81532    13.026941
    1.79456    13.090664
    1.77379    13.170920
    1.75303    13.211839
    1.73226    13.241773
    1.71150    13.200874
    1.69074    13.256410
    1.66997    13.352586
    1.64921    13.414272
    1.62844    13.475480
    1.60768    13.538790
    1.58692    13.572597
    1.56615    13.552558
    1.54539    13.550382
    1.52462    13.506955
    1.50386    13.438347
    1.48309    13.339320
    1.46233    13.214332
    1.44157    13.123095
    1.42080    13.061439
    1.40004    13.052159
    1.37927    12.987199
    1.35851    13.043268
    1.33775    12.982052
    1.31698    12.999942
    1.29622    12.984915
    1.27545    12.985721
    1.25469    12.901989
    1.23393    12.793661
    1.21316    12.727667
    1.19240    12.661896
    1.17163    12.631414
    1.15087    12.506001
    1.15087    12.506001
    1.11490    12.774244
    1.07894    12.928158
    1.04297    13.004340
    1.00701    13.146225
    0.97104    13.153845
    0.93508    13.359399
    0.89912    13.606129
    0.86315    13.887592
    0.82719    14.205451
    0.79122    14.463293
    0.75526    14.802438
    0.71929    15.034250
    0.68333    15.232752
    0.64736    15.410361
    0.61140    15.624112
    0.57543    15.492641
    0.53947    15.913135
    0.50350    15.708981
    0.46754    15.335247
    0.43158    15.326101
    0.39561    15.248775
    0.35965    15.279541
    0.32368    15.415375
    0.28772    15.520972
    0.25175    15.535350
    0.21579    15.549491
    0.17982    15.502395
    0.14386    15.488492
    0.10789    15.360067
    0.07193    15.055626
    0.03596    14.892025
    0.00000    15.093130

# Band-Index    42
    0.00000    18.792936
    0.03596    18.812563
    0.07193    18.813260
    0.10789    18.668902
    0.14386    18.431494
    0.17982    18.202243
    0.21579    17.973603
    0.25175    17.711088
    0.28772    17.514193
    0.32368    17.429034
    0.35965    17.453755
    0.39561    17.592989
    0.43158    17.618507
    0.46754    17.031326
    0.50350    16.202921
    0.53947    16.288882
    0.57543    15.995539
    0.61140    15.700454
    0.64736    15.507016
    0.68333    15.309929
    0.71929    15.215999
    0.75526    15.051536
    0.79122    14.921023
    0.82719    14.724955
    0.86315    14.459082
    0.89912    14.152927
    0.93508    13.925330
    0.97104    13.678997
    1.00701    13.330371
    1.04297    13.255770
    1.07894    13.101679
    1.11490    12.994915
    1.15087    13.047728
    1.15087    13.047728
    1.17163    13.140686
    1.19240    13.123794
    1.21316    13.157833
    1.23393    13.212566
    1.25469    13.327331
    1.27545    13.382333
    1.29622    13.428456
    1.31698    13.484486
    1.33775    13.532714
    1.35851    13.581728
    1.37927    13.606692
    1.40004    13.630989
    1.42080    13.630723
    1.44157    13.634629
    1.46233    13.574522
    1.48309    13.533499
    1.50386    13.547478
    1.52462    13.554592
    1.54539    13.638371
    1.56615    13.672553
    1.58692    13.751302
    1.60768    13.755739
    1.62844    13.771935
    1.64921    13.842907
    1.66997    13.882721
    1.69074    13.782068
    1.71150    13.599776
    1.73226    13.384939
    1.75303    13.276701
    1.77379    13.199111
    1.79456    13.212324
    1.81532    13.195426
    1.81532    13.195426
    1.85685    13.278314
    1.89838    13.442493
    1.93990    13.681079
    1.98143    13.940656
    2.02296    14.083327
    2.06449    14.269764
    2.10602    14.430580
    2.14755    14.559200
    2.18907    14.602742
    2.23060    14.700049
    2.27213    15.070108
    2.31366    15.383220
    2.35519    15.508524
    2.39671    15.845691
    2.43824    16.116914
    2.47977    16.036223
    2.52130    16.262084
    2.56283    16.258976
    2.60436    16.774986
    2.64588    16.992327
    2.68741    17.112748
    2.72894    17.133065
    2.77047    17.063221
    2.81200    17.022633
    2.85352    17.065614
    2.89505    17.275481
    2.93658    17.566548
    2.97811    17.878161
    3.01964    18.189054
    3.06117    18.504220
    3.10269    18.661850
    3.14422    18.792936

# Band-Index    43
    3.14422    19.643162
    3.10269    19.846906
    3.06117    20.512754
    3.01964    20.236141
    2.97811    19.728176
    2.93658    19.250136
    2.89505    18.770895
    2.85352    18.228110
    2.81200    17.821632
    2.77047    17.553500
    2.72894    17.589730
    2.68741    17.602604
    2.64588    17.604297
    2.60436    17.578626
    2.56283    17.426476
    2.52130    17.193658
    2.47977    16.846970
    2.43824    16.495674
    2.39671    16.295351
    2.35519    15.891790
    2.31366    15.471222
    2.27213    15.126158
    2.23060    14.770606
    2.18907    14.752863
    2.14755    14.910264
    2.10602    15.016319
    2.06449    14.874907
    2.02296    14.710691
    1.98143    14.547429
    1.93990    14.297244
    1.89838    14.090172
    1.85685    13.868698
    1.81532    13.632445
    1.81532    13.632445
    1.79456    13.646173
    1.77379    13.653655
    1.75303    13.705895
    1.73226    13.763150
    1.71150    13.795569
    1.69074    13.842212
    1.66997    13.916432
    1.64921    14.070097
    1.62844    14.178588
    1.60768    14.141848
    1.58692    14.154023
    1.56615    14.217525
    1.54539    14.324551
    1.52462    14.400193
    1.50386    14.448864
    1.48309    14.474835
    1.46233    14.473391
    1.44157    14.479964
    1.42080    14.434840
    1.40004    14.361407
    1.37927    14.289649
    1.35851    14.208280
    1.33775    14.133270
    1.31698    14.083085
    1.29622    14.033769
    1.27545    14.000037
    1.25469    13.945654
    1.23393    13.879926
    1.21316    13.899033
    1.19240    13.831295
    1.17163    13.882328
    1.15087    13.791575
    1.15087    13.791575
    1.11490    13.632562
    1.07894    13.552503
    1.04297    13.544692
    1.00701    13.547038
    0.97104    13.688757
    0.93508    13.952880
    0.89912    14.176777
    0.86315    14.486853
    0.82719    14.821369
    0.79122    14.948129
    0.75526    15.107918
    0.71929    15.251189
    0.68333    15.419720
    0.64736    15.767964
    0.61140    15.950339
    0.57543    16.299617
    0.53947    16.554658
    0.50350    17.051528
    0.46754    17.529242
    0.43158    17.985449
    0.39561    18.243377
    0.35965    18.506740
    0.32368    18.770860
    0.28772    19.196843
    0.25175    19.701425
    0.21579    19.416777
    0.17982    19.626743
    0.14386    19.937918
    0.10789    20.435700
    0.07193    20.684441
    0.03596    19.863585
    0.00000    19.643162

# Band-Index    44
    0.00000    21.776366
    0.03596    21.385881
    0.07193    20.943124
    0.10789    21.122538
    0.14386    21.438240
    0.17982    21.441776
    0.21579    20.720030
    0.25175    20.262307
    0.28772    20.108826
    0.32368    19.868004
    0.35965    19.335746
    0.39561    18.659423
    0.43158    18.015198
    0.46754    17.660029
    0.50350    17.343101
    0.53947    16.991170
    0.57543    16.634557
    0.61140    16.169899
    0.64736    15.771918
    0.68333    15.768946
    0.71929    15.634751
    0.75526    15.409300
    0.79122    15.174670
    0.82719    14.890486
    0.86315    14.717957
    0.89912    14.635572
    0.93508    14.590313
    0.97104    14.589780
    1.00701    14.671648
    1.04297    14.816642
    1.07894    14.947835
    1.11490    14.952067
    1.15087    14.885735
    1.15087    14.885735
    1.17163    14.961186
    1.19240    15.069689
    1.21316    15.138492
    1.23393    15.203404
    1.25469    15.335666
    1.27545    15.410512
    1.29622    15.459496
    1.31698    15.509439
    1.33775    15.527791
    1.35851    15.559450
    1.37927    15.559378
    1.40004    15.563712
    1.42080    15.521323
    1.44157    15.554480
    1.46233    15.548222
    1.48309    15.500607
    1.50386    15.430818
    1.52462    15.316462
    1.54539    15.168361
    1.56615    14.968617
    1.58692    14.771868
    1.60768    14.529648
    1.62844    14.241169
    1.64921    14.086252
    1.66997    14.045406
    1.69074    14.075270
    1.71150    14.092404
    1.73226    14.153009
    1.75303    14.185311
    1.77379    14.204290
    1.79456    14.217143
    1.81532    14.131898
    1.81532    14.131898
    1.85685    14.265679
    1.89838    14.466232
    1.93990    14.586006
    1.98143    14.725071
    2.02296    14.887101
    2.06449    15.039336
    2.10602    15.047830
    2.14755    15.180132
    2.18907    15.305369
    2.23060    15.620321
    2.27213    15.852384
    2.31366    16.032300
    2.35519    16.241076
    2.39671    16.390575
    2.43824    16.501068
    2.47977    16.847803
    2.52130    17.395624
    2.56283    17.946278
    2.60436    18.109464
    2.64588    18.255198
    2.68741    18.654483
    2.72894    19.268357
    2.77047    19.988463
    2.81200    20.506916
    2.85352    20.709085
    2.89505    21.098332
    2.93658    21.180917
    2.97811    21.069520
    3.01964    20.809087
    3.06117    20.826521
    3.10269    21.357719
    3.14422    21.776366

# Band-Index    45
    3.14422    25.183874
    3.10269    24.418574
    3.06117    23.847376
    3.01964    23.324716
    2.97811    22.446784
    2.93658    21.650778
    2.89505    21.119995
    2.85352    20.863355
    2.81200    20.559433
    2.77047    20.184810
    2.72894    19.788168
    2.68741    19.362577
    2.64588    18.915228
    2.60436    18.444095
    2.56283    17.989793
    2.52130    17.610430
    2.47977    17.394853
    2.43824    17.204212
    2.39671    16.815708
    2.35519    16.640867
    2.31366    16.638429
    2.27213    16.285840
    2.23060    16.028295
    2.18907    15.764497
    2.14755    15.520866
    2.10602    15.323711
    2.06449    15.207766
    2.02296    15.137887
    1.98143    15.059713
    1.93990    14.947019
    1.89838    14.818976
    1.85685    14.667841
    1.81532    14.454879
    1.81532    14.454879
    1.79456    14.539653
    1.77379    14.571867
    1.75303    14.630997
    1.73226    14.700332
    1.71150    14.773737
    1.69074    14.845767
    1.66997    14.918761
    1.64921    14.986866
    1.62844    15.060070
    1.60768    15.129722
    1.58692    15.200080
    1.56615    15.274875
    1.54539    15.367623
    1.52462    15.465513
    1.50386    15.579991
    1.48309    15.658724
    1.46233    15.679104
    1.44157    15.670153
    1.42080    15.669005
    1.40004    15.635442
    1.37927    15.603360
    1.35851    15.574862
    1.33775    15.535839
    1.31698    15.530430
    1.29622    15.480586
    1.27545    15.455731
    1.25469    15.397266
    1.23393    15.343511
    1.21316    15.331084
    1.19240    15.285166
    1.17163    15.273924
    1.15087    15.238145
    1.15087    15.238145
    1.11490    15.266169
    1.07894    15.387916
    1.04297    15.608794
    1.00701    15.869412
    0.97104    16.129939
    0.93508    16.350555
    0.89912    16.567953
    0.86315    16.750654
    0.82719    16.959956
    0.79122    17.135693
    0.75526    17.312260
    0.71929    17.377132
    0.68333    17.162348
    0.64736    16.980684
    0.61140    16.920036
    0.57543    16.987423
    0.53947    17.175162
    0.50350    17.508560
    0.46754    17.977840
    0.43158    18.559950
    0.39561    19.123314
    0.35965    19.625685
    0.32368    20.004003
    0.28772    20.267903
    0.25175    20.445556
    0.21579    21.151449
    0.17982    21.463031
    0.14386    22.321263
    0.10789    22.696346
    0.07193    23.614700
    0.03596    24.577255
    0.00000    25.183874

# Band-Index    46
    0.00000    25.435571
    0.03596    24.807851
    0.07193    24.552738
    0.10789    23.941514
    0.14386    22.880491
    0.17982    22.626452
    0.21579    22.413276
    0.25175    21.835915
    0.28772    21.165519
    0.32368    20.469451
    0.35965    19.833383
    0.39561    19.332022
    0.43158    19.006109
    0.46754    18.728493
    0.50350    18.518522
    0.53947    18.322287
    0.57543    18.171451
    0.61140    18.001588
    0.64736    17.819517
    0.68333    17.625376
    0.71929    17.477321
    0.75526    17.655835
    0.79122    17.914959
    0.82719    18.116659
    0.86315    18.333818
    0.89912    18.549388
    0.93508    18.752628
    0.97104    18.938114
    1.00701    19.078544
    1.04297    19.185644
    1.07894    19.263922
    1.11490    19.315075
    1.15087    19.327558
    1.15087    19.327558
    1.17163    19.279996
    1.19240    19.175302
    1.21316    19.034311
    1.23393    18.856368
    1.25469    18.651952
    1.27545    18.428835
    1.29622    18.200703
    1.31698    17.950226
    1.33775    17.699260
    1.35851    17.432484
    1.37927    17.160150
    1.40004    16.886786
    1.42080    16.599375
    1.44157    16.327712
    1.46233    16.060838
    1.48309    15.857964
    1.50386    15.771806
    1.52462    15.775246
    1.54539    15.798959
    1.56615    15.827935
    1.58692    15.858654
    1.60768    15.901869
    1.62844    15.843039
    1.64921    15.697222
    1.66997    15.541486
    1.69074    15.384008
    1.71150    15.231453
    1.73226    15.071433
    1.75303    14.913485
    1.77379    14.698626
    1.79456    14.562264
    1.81532    14.535470
    1.81532    14.535470
    1.85685    14.710599
    1.89838    14.908622
    1.93990    15.094587
    1.98143    15.309273
    2.02296    15.556515
    2.06449    15.584323
    2.10602    15.544809
    2.14755    15.629587
    2.18907    15.803197
    2.23060    16.076391
    2.27213    16.382366
    2.31366    16.652198
    2.35519    16.958819
    2.39671    17.117395
    2.43824    17.256770
    2.47977    17.565335
    2.52130    17.769374
    2.56283    18.033546
    2.60436    18.728945
    2.64588    19.447978
    2.68741    19.943908
    2.72894    20.243862
    2.77047    20.353598
    2.81200    20.693465
    2.85352    21.354198
    2.89505    21.975323
    2.93658    22.578080
    2.97811    22.956419
    3.01964    23.383480
    3.06117    24.323783
    3.10269    24.877266
    3.14422    25.435571

# Band-Index    47
    3.14422    25.938384
    3.10269    25.211409
    3.06117    24.337750
    3.01964    23.748306
    2.97811    23.167265
    2.93658    22.629832
    2.89505    22.259550
    2.85352    21.808253
    2.81200    21.351815
    2.77047    20.892389
    2.72894    20.435222
    2.68741    20.042060
    2.64588    19.454986
    2.60436    19.024516
    2.56283    18.696715
    2.52130    18.312945
    2.47977    17.804446
    2.43824    17.438597
    2.39671    17.244680
    2.35519    16.964799
    2.31366    16.658389
    2.27213    16.690747
    2.23060    16.557416
    2.18907    16.360350
    2.14755    16.168935
    2.10602    15.957206
    2.06449    15.752305
    2.02296    15.742965
    1.98143    15.838080
    1.93990    15.908728
    1.89838    15.883596
    1.85685    15.803292
    1.81532    15.694517
    1.81532    15.694517
    1.79456    15.699078
    1.77379    15.712845
    1.75303    15.719032
    1.73226    15.733660
    1.71150    15.764877
    1.69074    15.788340
    1.66997    15.822764
    1.64921    15.861182
    1.62844    15.906326
    1.60768    16.001690
    1.58692    16.187181
    1.56615    16.363842
    1.54539    16.496490
    1.52462    16.640482
    1.50386    16.799804
    1.48309    16.988521
    1.46233    17.172272
    1.44157    17.366326
    1.42080    17.554376
    1.40004    17.759218
    1.37927    17.965876
    1.35851    18.174576
    1.33775    18.396993
    1.31698    18.594855
    1.29622    18.825991
    1.27545    19.050502
    1.25469    19.278496
    1.23393    19.500846
    1.21316    19.721794
    1.19240    19.939185
    1.17163    20.184560
    1.15087    20.435095
    1.15087    20.435095
    1.11490    20.426868
    1.07894    20.409527
    1.04297    20.388556
    1.00701    20.369963
    0.97104    20.346692
    0.93508    20.376996
    0.89912    20.390988
    0.86315    20.444205
    0.82719    20.495457
    0.79122    20.588848
    0.75526    20.703867
    0.71929    20.845084
    0.68333    21.002733
    0.64736    21.179216
    0.61140    21.370151
    0.57543    21.577150
    0.53947    21.766280
    0.50350    21.975462
    0.46754    22.195058
    0.43158    22.411096
    0.39561    22.639863
    0.35965    22.878116
    0.32368    23.123508
    0.28772    23.376699
    0.25175    23.641193
    0.21579    23.894566
    0.17982    24.133752
    0.14386    24.367046
    0.10789    24.615887
    0.07193    24.951551
    0.03596    25.496994
    0.00000    25.938384

# Band-Index    48
    0.00000    25.965161
    0.03596    25.544737
    0.07193    25.283355
    0.10789    25.003026
    0.14386    24.707927
    0.17982    24.404047
    0.21579    24.106872
    0.25175    23.820823
    0.28772    23.551065
    0.32368    23.304647
    0.35965    23.080947
    0.39561    22.873536
    0.43158    22.669540
    0.46754    22.494839
    0.50350    22.316715
    0.53947    22.149265
    0.57543    22.001632
    0.61140    21.849492
    0.64736    21.710006
    0.68333    21.580384
    0.71929    21.444875
    0.75526    21.321001
    0.79122    21.202846
    0.82719    21.137728
    0.86315    21.060005
    0.89912    20.975103
    0.93508    20.897469
    0.97104    20.881198
    1.00701    20.843164
    1.04297    20.825895
    1.07894    20.823596
    1.11490    20.834757
    1.15087    20.875292
    1.15087    20.875292
    1.17163    20.547438
    1.19240    20.255389
    1.21316    19.966722
    1.23393    19.703026
    1.25469    19.443947
    1.27545    19.202334
    1.29622    18.986963
    1.31698    18.755083
    1.33775    18.533703
    1.35851    18.298429
    1.37927    18.068018
    1.40004    17.832489
    1.42080    17.628036
    1.44157    17.397685
    1.46233    17.199697
    1.48309    17.003233
    1.50386    16.832735
    1.52462    16.679809
    1.54539    16.518859
    1.56615    16.419856
    1.58692    16.342813
    1.60768    16.333491
    1.62844    16.340700
    1.64921    16.357675
    1.66997    16.363990
    1.69074    16.384899
    1.71150    16.434116
    1.73226    16.455311
    1.75303    16.484034
    1.77379    16.501009
    1.79456    16.502602
    1.81532    16.503691
    1.81532    16.503691
    1.85685    16.558405
    1.89838    16.599773
    1.93990    16.658929
    1.98143    16.750647
    2.02296    16.864127
    2.06449    17.006431
    2.10602    17.142753
    2.14755    17.273484
    2.18907    17.361486
    2.23060    17.466035
    2.27213    17.578946
    2.31366    17.701756
    2.35519    17.908953
    2.39671    18.172749
    2.43824    18.479636
    2.47977    18.800467
    2.52130    19.121338
    2.56283    19.414000
    2.60436    19.666301
    2.64588    19.890464
    2.68741    20.075629
    2.72894    20.574205
    2.77047    21.067902
    2.81200    21.588373
    2.85352    22.112966
    2.89505    22.658717
    2.93658    23.191746
    2.97811    23.731087
    3.01964    24.271194
    3.06117    24.829789
    3.10269    25.352505
    3.14422    25.965161

