#K-Path(1/A) Energy-Level(eV)
# NKPTS & NBANDS:  61  34
# Band-Index     1
    0.0000    -61.3187
    0.0289    -61.3184
    0.0577    -61.3177
    0.0866    -61.3166
    0.1155    -61.3150
    0.1443    -61.3131
    0.1732    -61.3108
    0.2021    -61.3082
    0.2309    -61.3055
    0.2598    -61.3025
    0.2887    -61.2996
    0.3175    -61.2966
    0.3464    -61.2936
    0.3753    -61.2909
    0.4041    -61.2883
    0.4330    -61.2860
    0.4619    -61.2840
    0.4907    -61.2825
    0.5196    -61.2813
    0.5485    -61.2806
    0.5774    -61.2804
    0.5940    -61.2803
    0.6107    -61.2803
    0.6273    -61.2801
    0.6440    -61.2800
    0.6607    -61.2797
    0.6773    -61.2795
    0.6940    -61.2792
    0.7107    -61.2789
    0.7273    -61.2785
    0.7440    -61.2781
    0.7607    -61.2778
    0.7773    -61.2774
    0.7940    -61.2770
    0.8107    -61.2767
    0.8273    -61.2764
    0.8440    -61.2761
    0.8607    -61.2759
    0.8773    -61.2757
    0.8940    -61.2756
    0.9106    -61.2756
    0.9440    -61.2757
    0.9773    -61.2763
    1.0106    -61.2772
    1.0440    -61.2786
    1.0773    -61.2804
    1.1106    -61.2826
    1.1440    -61.2852
    1.1773    -61.2881
    1.2106    -61.2914
    1.2439    -61.2948
    1.2773    -61.2983
    1.3106    -61.3018
    1.3439    -61.3052
    1.3773    -61.3084
    1.4106    -61.3113
    1.4439    -61.3139
    1.4773    -61.3159
    1.5106    -61.3174
    1.5439    -61.3184
    1.5772    -61.3187

# Band-Index     2
    1.5772    -61.3187
    1.5439    -61.3184
    1.5106    -61.3174
    1.4773    -61.3159
    1.4439    -61.3139
    1.4106    -61.3113
    1.3773    -61.3084
    1.3439    -61.3052
    1.3106    -61.3018
    1.2773    -61.2983
    1.2439    -61.2948
    1.2106    -61.2914
    1.1773    -61.2881
    1.1440    -61.2852
    1.1106    -61.2826
    1.0773    -61.2804
    1.0440    -61.2786
    1.0106    -61.2772
    0.9773    -61.2763
    0.9440    -61.2757
    0.9106    -61.2756
    0.8940    -61.2756
    0.8773    -61.2757
    0.8607    -61.2759
    0.8440    -61.2761
    0.8273    -61.2764
    0.8107    -61.2767
    0.7940    -61.2770
    0.7773    -61.2774
    0.7607    -61.2778
    0.7440    -61.2781
    0.7273    -61.2785
    0.7107    -61.2789
    0.6940    -61.2792
    0.6773    -61.2795
    0.6607    -61.2797
    0.6440    -61.2800
    0.6273    -61.2801
    0.6107    -61.2803
    0.5940    -61.2803
    0.5774    -61.2804
    0.5485    -61.2806
    0.5196    -61.2813
    0.4907    -61.2825
    0.4619    -61.2840
    0.4330    -61.2860
    0.4041    -61.2883
    0.3753    -61.2909
    0.3464    -61.2936
    0.3175    -61.2966
    0.2887    -61.2996
    0.2598    -61.3025
    0.2309    -61.3055
    0.2021    -61.3082
    0.1732    -61.3108
    0.1443    -61.3131
    0.1155    -61.3150
    0.0866    -61.3166
    0.0577    -61.3177
    0.0289    -61.3184
    0.0000    -61.3187

# Band-Index     3
    0.0000    -37.0591
    0.0289    -37.0597
    0.0577    -37.0616
    0.0866    -37.0647
    0.1155    -37.0689
    0.1443    -37.0742
    0.1732    -37.0805
    0.2021    -37.0877
    0.2309    -37.0955
    0.2598    -37.1039
    0.2887    -37.1126
    0.3175    -37.1215
    0.3464    -37.1302
    0.3753    -37.1386
    0.4041    -37.1465
    0.4330    -37.1536
    0.4619    -37.1597
    0.4907    -37.1647
    0.5196    -37.1683
    0.5485    -37.1705
    0.5774    -37.1713
    0.5940    -37.1722
    0.6107    -37.1733
    0.6273    -37.1744
    0.6440    -37.1756
    0.6607    -37.1769
    0.6773    -37.1782
    0.6940    -37.1795
    0.7107    -37.1809
    0.7273    -37.1823
    0.7440    -37.1837
    0.7607    -37.1851
    0.7773    -37.1864
    0.7940    -37.1876
    0.8107    -37.1888
    0.8273    -37.1899
    0.8440    -37.1908
    0.8607    -37.1916
    0.8773    -37.1921
    0.8940    -37.1925
    0.9106    -37.1926
    0.9440    -37.1921
    0.9773    -37.1903
    1.0106    -37.1872
    1.0440    -37.1827
    1.0773    -37.1767
    1.1106    -37.1694
    1.1440    -37.1608
    1.1773    -37.1512
    1.2106    -37.1408
    1.2439    -37.1299
    1.2773    -37.1189
    1.3106    -37.1080
    1.3439    -37.0976
    1.3773    -37.0881
    1.4106    -37.0796
    1.4439    -37.0724
    1.4773    -37.0666
    1.5106    -37.0624
    1.5439    -37.0599
    1.5772    -37.0591

# Band-Index     4
    1.5772    -37.0591
    1.5439    -37.0599
    1.5106    -37.0624
    1.4773    -37.0664
    1.4439    -37.0718
    1.4106    -37.0785
    1.3773    -37.0862
    1.3439    -37.0947
    1.3106    -37.1038
    1.2773    -37.1132
    1.2439    -37.1225
    1.2106    -37.1315
    1.1773    -37.1399
    1.1440    -37.1475
    1.1106    -37.1540
    1.0773    -37.1594
    1.0440    -37.1636
    1.0106    -37.1666
    0.9773    -37.1686
    0.9440    -37.1696
    0.9106    -37.1699
    0.8940    -37.1698
    0.8773    -37.1697
    0.8607    -37.1694
    0.8440    -37.1691
    0.8273    -37.1688
    0.8107    -37.1685
    0.7940    -37.1682
    0.7773    -37.1679
    0.7607    -37.1676
    0.7440    -37.1675
    0.7273    -37.1674
    0.7107    -37.1674
    0.6940    -37.1675
    0.6773    -37.1677
    0.6607    -37.1681
    0.6440    -37.1685
    0.6273    -37.1690
    0.6107    -37.1697
    0.5940    -37.1704
    0.5774    -37.1713
    0.5485    -37.1705
    0.5196    -37.1683
    0.4907    -37.1646
    0.4619    -37.1597
    0.4330    -37.1536
    0.4041    -37.1465
    0.3753    -37.1386
    0.3464    -37.1302
    0.3175    -37.1215
    0.2887    -37.1126
    0.2598    -37.1039
    0.2309    -37.0955
    0.2021    -37.0877
    0.1732    -37.0805
    0.1443    -37.0742
    0.1155    -37.0689
    0.0866    -37.0647
    0.0577    -37.0616
    0.0289    -37.0597
    0.0000    -37.0591

# Band-Index     5
    0.0000    -34.6273
    0.0289    -34.6276
    0.0577    -34.6284
    0.0866    -34.6297
    0.1155    -34.6318
    0.1443    -34.6347
    0.1732    -34.6388
    0.2021    -34.6443
    0.2309    -34.6518
    0.2598    -34.6616
    0.2887    -34.6737
    0.3175    -34.6876
    0.3464    -34.7028
    0.3753    -34.7181
    0.4041    -34.7329
    0.4330    -34.7464
    0.4619    -34.7582
    0.4907    -34.7677
    0.5196    -34.7747
    0.5485    -34.7790
    0.5774    -34.7804
    0.5940    -34.7814
    0.6107    -34.7821
    0.6273    -34.7825
    0.6440    -34.7827
    0.6607    -34.7827
    0.6773    -34.7825
    0.6940    -34.7821
    0.7107    -34.7817
    0.7273    -34.7811
    0.7440    -34.7805
    0.7607    -34.7799
    0.7773    -34.7794
    0.7940    -34.7789
    0.8107    -34.7785
    0.8273    -34.7783
    0.8440    -34.7782
    0.8607    -34.7782
    0.8773    -34.7783
    0.8940    -34.7784
    0.9106    -34.7784
    0.9440    -34.7780
    0.9773    -34.7764
    1.0106    -34.7730
    1.0440    -34.7672
    1.0773    -34.7589
    1.1106    -34.7481
    1.1440    -34.7350
    1.1773    -34.7200
    1.2106    -34.7040
    1.2439    -34.6878
    1.2773    -34.6728
    1.3106    -34.6609
    1.3439    -34.6513
    1.3773    -34.6436
    1.4106    -34.6379
    1.4439    -34.6336
    1.4773    -34.6307
    1.5106    -34.6288
    1.5439    -34.6277
    1.5772    -34.6273

# Band-Index     6
    1.5772    -34.6273
    1.5439    -34.6277
    1.5106    -34.6287
    1.4773    -34.6305
    1.4439    -34.6332
    1.4106    -34.6370
    1.3773    -34.6425
    1.3439    -34.6500
    1.3106    -34.6600
    1.2773    -34.6722
    1.2439    -34.6846
    1.2106    -34.6971
    1.1773    -34.7089
    1.1440    -34.7190
    1.1106    -34.7270
    1.0773    -34.7325
    1.0440    -34.7354
    1.0106    -34.7359
    0.9773    -34.7347
    0.9440    -34.7327
    0.9106    -34.7316
    0.8940    -34.7319
    0.8773    -34.7330
    0.8607    -34.7348
    0.8440    -34.7372
    0.8273    -34.7400
    0.8107    -34.7432
    0.7940    -34.7466
    0.7773    -34.7500
    0.7607    -34.7535
    0.7440    -34.7569
    0.7273    -34.7602
    0.7107    -34.7634
    0.6940    -34.7664
    0.6773    -34.7691
    0.6607    -34.7717
    0.6440    -34.7740
    0.6273    -34.7760
    0.6107    -34.7777
    0.5940    -34.7792
    0.5774    -34.7804
    0.5485    -34.7790
    0.5196    -34.7747
    0.4907    -34.7677
    0.4619    -34.7581
    0.4330    -34.7464
    0.4041    -34.7329
    0.3753    -34.7181
    0.3464    -34.7027
    0.3175    -34.6876
    0.2887    -34.6736
    0.2598    -34.6615
    0.2309    -34.6517
    0.2021    -34.6442
    0.1732    -34.6387
    0.1443    -34.6347
    0.1155    -34.6318
    0.0866    -34.6297
    0.0577    -34.6284
    0.0289    -34.6276
    0.0000    -34.6273

# Band-Index     7
    0.0000    -34.4729
    0.0289    -34.4744
    0.0577    -34.4791
    0.0866    -34.4866
    0.1155    -34.4966
    0.1443    -34.5086
    0.1732    -34.5218
    0.2021    -34.5354
    0.2309    -34.5485
    0.2598    -34.5600
    0.2887    -34.5695
    0.3175    -34.5769
    0.3464    -34.5823
    0.3753    -34.5862
    0.4041    -34.5890
    0.4330    -34.5910
    0.4619    -34.5924
    0.4907    -34.5933
    0.5196    -34.5939
    0.5485    -34.5943
    0.5774    -34.5944
    0.5940    -34.5950
    0.6107    -34.5963
    0.6273    -34.5982
    0.6440    -34.6009
    0.6607    -34.6040
    0.6773    -34.6077
    0.6940    -34.6118
    0.7107    -34.6162
    0.7273    -34.6207
    0.7440    -34.6261
    0.7607    -34.6318
    0.7773    -34.6376
    0.7940    -34.6435
    0.8107    -34.6491
    0.8273    -34.6543
    0.8440    -34.6590
    0.8607    -34.6629
    0.8773    -34.6658
    0.8940    -34.6677
    0.9106    -34.6683
    0.9440    -34.6661
    0.9773    -34.6605
    1.0106    -34.6531
    1.0440    -34.6447
    1.0773    -34.6358
    1.1106    -34.6276
    1.1440    -34.6208
    1.1773    -34.6134
    1.2106    -34.6052
    1.2439    -34.5956
    1.2773    -34.5842
    1.3106    -34.5703
    1.3439    -34.5544
    1.3773    -34.5373
    1.4106    -34.5203
    1.4439    -34.5046
    1.4773    -34.4913
    1.5106    -34.4812
    1.5439    -34.4750
    1.5772    -34.4729

# Band-Index     8
    1.5772    -34.4729
    1.5439    -34.4750
    1.5106    -34.4810
    1.4773    -34.4907
    1.4439    -34.5032
    1.4106    -34.5178
    1.3773    -34.5334
    1.3439    -34.5489
    1.3106    -34.5635
    1.2773    -34.5766
    1.2439    -34.5883
    1.2106    -34.5988
    1.1773    -34.6084
    1.1440    -34.6177
    1.1106    -34.6268
    1.0773    -34.6340
    1.0440    -34.6399
    1.0106    -34.6452
    0.9773    -34.6495
    0.9440    -34.6524
    0.9106    -34.6535
    0.8940    -34.6532
    0.8773    -34.6523
    0.8607    -34.6507
    0.8440    -34.6486
    0.8273    -34.6458
    0.8107    -34.6425
    0.7940    -34.6387
    0.7773    -34.6345
    0.7607    -34.6300
    0.7440    -34.6254
    0.7273    -34.6205
    0.7107    -34.6153
    0.6940    -34.6105
    0.6773    -34.6062
    0.6607    -34.6025
    0.6440    -34.5995
    0.6273    -34.5971
    0.6107    -34.5955
    0.5940    -34.5945
    0.5774    -34.5944
    0.5485    -34.5943
    0.5196    -34.5939
    0.4907    -34.5933
    0.4619    -34.5924
    0.4330    -34.5910
    0.4041    -34.5890
    0.3753    -34.5862
    0.3464    -34.5823
    0.3175    -34.5769
    0.2887    -34.5695
    0.2598    -34.5600
    0.2309    -34.5485
    0.2021    -34.5354
    0.1732    -34.5218
    0.1443    -34.5086
    0.1155    -34.4966
    0.0866    -34.4866
    0.0577    -34.4791
    0.0289    -34.4744
    0.0000    -34.4729

# Band-Index     9
    0.0000    -14.5403
    0.0289    -14.5310
    0.0577    -14.5031
    0.0866    -14.4571
    0.1155    -14.3936
    0.1443    -14.3134
    0.1732    -14.2178
    0.2021    -14.1081
    0.2309    -13.9861
    0.2598    -13.8538
    0.2887    -13.7136
    0.3175    -13.5682
    0.3464    -13.4209
    0.3753    -13.2750
    0.4041    -13.1347
    0.4330    -13.0044
    0.4619    -12.8887
    0.4907    -12.7923
    0.5196    -12.7196
    0.5485    -12.6741
    0.5774    -12.6583
    0.5940    -12.6592
    0.6107    -12.6574
    0.6273    -12.6529
    0.6440    -12.6457
    0.6607    -12.6361
    0.6773    -12.6242
    0.6940    -12.6103
    0.7107    -12.5946
    0.7273    -12.5775
    0.7440    -12.5592
    0.7607    -12.5403
    0.7773    -12.5211
    0.7940    -12.5021
    0.8107    -12.4839
    0.8273    -12.4668
    0.8440    -12.4516
    0.8607    -12.4388
    0.8773    -12.4289
    0.8940    -12.4225
    0.9106    -12.4203
    0.9440    -12.4303
    0.9773    -12.4625
    1.0106    -12.5194
    1.0440    -12.6020
    1.0773    -12.7092
    1.1106    -12.8386
    1.1440    -12.9862
    1.1773    -13.1472
    1.2106    -13.3163
    1.2439    -13.4886
    1.2773    -13.6590
    1.3106    -13.8232
    1.3439    -13.9772
    1.3773    -14.1176
    1.4106    -14.2414
    1.4439    -14.3462
    1.4773    -14.4299
    1.5106    -14.4908
    1.5439    -14.5279
    1.5772    -14.5403

# Band-Index     10
    1.5772    -14.5403
    1.5439    -14.5278
    1.5106    -14.4906
    1.4773    -14.4293
    1.4439    -14.3451
    1.4106    -14.2393
    1.3773    -14.1140
    1.3439    -13.9717
    1.3106    -13.8151
    1.2773    -13.6476
    1.2439    -13.4733
    1.2106    -13.2964
    1.1773    -13.1220
    1.1440    -12.9552
    1.1106    -12.8015
    1.0773    -12.6661
    1.0440    -12.5534
    1.0106    -12.4664
    0.9773    -12.4068
    0.9440    -12.3738
    0.9106    -12.3638
    0.8940    -12.3660
    0.8773    -12.3725
    0.8607    -12.3828
    0.8440    -12.3964
    0.8273    -12.4129
    0.8107    -12.4316
    0.7940    -12.4519
    0.7773    -12.4734
    0.7607    -12.4954
    0.7440    -12.5175
    0.7273    -12.5391
    0.7107    -12.5599
    0.6940    -12.5795
    0.6773    -12.5975
    0.6607    -12.6136
    0.6440    -12.6275
    0.6273    -12.6391
    0.6107    -12.6482
    0.5940    -12.6546
    0.5774    -12.6583
    0.5485    -12.6732
    0.5196    -12.7181
    0.4907    -12.7905
    0.4619    -12.8869
    0.4330    -13.0026
    0.4041    -13.1331
    0.3753    -13.2735
    0.3464    -13.4195
    0.3175    -13.5670
    0.2887    -13.7125
    0.2598    -13.8528
    0.2309    -13.9852
    0.2021    -14.1073
    0.1732    -14.2171
    0.1443    -14.3129
    0.1155    -14.3932
    0.0866    -14.4568
    0.0577    -14.5029
    0.0289    -14.5309
    0.0000    -14.5403

# Band-Index     11
    0.0000    -13.2811
    0.0289    -13.2771
    0.0577    -13.2652
    0.0866    -13.2456
    0.1155    -13.2184
    0.1443    -13.1841
    0.1732    -13.1433
    0.2021    -13.0965
    0.2309    -13.0445
    0.2598    -12.9884
    0.2887    -12.9292
    0.3175    -12.8681
    0.3464    -12.8067
    0.3753    -12.7465
    0.4041    -12.6891
    0.4330    -12.6365
    0.4619    -12.5902
    0.4907    -12.5521
    0.5196    -12.5235
    0.5485    -12.5056
    0.5774    -12.4992
    0.5940    -12.4985
    0.6107    -12.4960
    0.6273    -12.4919
    0.6440    -12.4861
    0.6607    -12.4788
    0.6773    -12.4700
    0.6940    -12.4601
    0.7107    -12.4491
    0.7273    -12.4374
    0.7440    -12.4250
    0.7607    -12.4124
    0.7773    -12.3998
    0.7940    -12.3875
    0.8107    -12.3759
    0.8273    -12.3651
    0.8440    -12.3557
    0.8607    -12.3478
    0.8773    -12.3419
    0.8940    -12.3381
    0.9106    -12.3368
    0.9440    -12.3424
    0.9773    -12.3598
    1.0106    -12.3892
    1.0440    -12.4299
    1.0773    -12.4809
    1.1106    -12.5407
    1.1440    -12.6073
    1.1773    -12.6788
    1.2106    -12.7531
    1.2439    -12.8281
    1.2773    -12.9020
    1.3106    -12.9729
    1.3439    -13.0393
    1.3773    -13.0998
    1.4106    -13.1530
    1.4439    -13.1980
    1.4773    -13.2339
    1.5106    -13.2600
    1.5439    -13.2758
    1.5772    -13.2811

# Band-Index     12
    1.5772    -13.2811
    1.5439    -13.2757
    1.5106    -13.2597
    1.4773    -13.2335
    1.4439    -13.1975
    1.4106    -13.1524
    1.3773    -13.0990
    1.3439    -13.0383
    1.3106    -12.9717
    1.2773    -12.9005
    1.2439    -12.8263
    1.2106    -12.7509
    1.1773    -12.6761
    1.1440    -12.6041
    1.1106    -12.5369
    1.0773    -12.4766
    1.0440    -12.4251
    1.0106    -12.3839
    0.9773    -12.3539
    0.9440    -12.3355
    0.9106    -12.3293
    0.8940    -12.3308
    0.8773    -12.3349
    0.8607    -12.3413
    0.8440    -12.3497
    0.8273    -12.3596
    0.8107    -12.3707
    0.7940    -12.3828
    0.7773    -12.3954
    0.7607    -12.4084
    0.7440    -12.4213
    0.7273    -12.4340
    0.7107    -12.4461
    0.6940    -12.4575
    0.6773    -12.4678
    0.6607    -12.4769
    0.6440    -12.4846
    0.6273    -12.4907
    0.6107    -12.4953
    0.5940    -12.4981
    0.5774    -12.4992
    0.5485    -12.5047
    0.5196    -12.5220
    0.4907    -12.5503
    0.4619    -12.5884
    0.4330    -12.6347
    0.4041    -12.6875
    0.3753    -12.7450
    0.3464    -12.8054
    0.3175    -12.8669
    0.2887    -12.9281
    0.2598    -12.9874
    0.2309    -13.0437
    0.2021    -13.0958
    0.1732    -13.1427
    0.1443    -13.1836
    0.1155    -13.2180
    0.0866    -13.2453
    0.0577    -13.2650
    0.0289    -13.2770
    0.0000    -13.2811

# Band-Index     13
    0.0000    -6.0749
    0.0289    -6.0639
    0.0577    -6.0312
    0.0866    -5.9780
    0.1155    -5.9064
    0.1443    -5.8196
    0.1732    -5.7225
    0.2021    -5.6222
    0.2309    -5.5293
    0.2598    -5.4587
    0.2887    -5.4281
    0.3175    -5.4504
    0.3464    -5.5233
    0.3753    -5.6304
    0.4041    -5.7536
    0.4330    -5.8780
    0.4619    -5.9932
    0.4907    -6.0912
    0.5196    -6.1658
    0.5485    -6.2125
    0.5774    -6.2284
    0.5940    -6.2255
    0.6107    -6.2144
    0.6273    -6.1952
    0.6440    -6.1680
    0.6607    -6.1329
    0.6773    -6.0901
    0.6940    -6.0399
    0.7107    -5.9825
    0.7273    -5.9184
    0.7440    -5.8479
    0.7607    -5.7716
    0.7773    -5.6911
    0.7940    -5.6788
    0.8107    -5.7200
    0.8273    -5.7582
    0.8440    -5.7915
    0.8607    -5.8189
    0.8773    -5.8394
    0.8940    -5.8522
    0.9106    -5.8567
    0.9440    -5.8380
    0.9773    -5.7802
    1.0106    -5.6819
    1.0440    -5.5453
    1.0773    -5.5572
    1.1106    -5.5650
    1.1440    -5.5359
    1.1773    -5.4800
    1.2106    -5.4148
    1.2439    -5.3657
    1.2773    -5.3612
    1.3106    -5.4132
    1.3439    -5.5083
    1.3773    -5.6246
    1.4106    -5.7441
    1.4439    -5.8543
    1.4773    -5.9471
    1.5106    -6.0169
    1.5439    -6.0602
    1.5772    -6.0749

# Band-Index     14
    1.5772    -6.0749
    1.5439    -6.0602
    1.5106    -6.0167
    1.4773    -5.9466
    1.4439    -5.8531
    1.4106    -5.7416
    1.3773    -5.6201
    1.3439    -5.5005
    1.3106    -5.4006
    1.2773    -5.3430
    1.2439    -5.3437
    1.2106    -5.3927
    1.1773    -5.4612
    1.1440    -5.5223
    1.1106    -5.5580
    1.0773    -5.5567
    1.0440    -5.5269
    1.0106    -5.6610
    0.9773    -5.7584
    0.9440    -5.8157
    0.9106    -5.8342
    0.8940    -5.8298
    0.8773    -5.8171
    0.8607    -5.7968
    0.8440    -5.7697
    0.8273    -5.7368
    0.8107    -5.6993
    0.7940    -5.6591
    0.7773    -5.6677
    0.7607    -5.7490
    0.7440    -5.8266
    0.7273    -5.8986
    0.7107    -5.9645
    0.6940    -6.0238
    0.6773    -6.0760
    0.6607    -6.1210
    0.6440    -6.1584
    0.6273    -6.1879
    0.6107    -6.2096
    0.5940    -6.2230
    0.5774    -6.2284
    0.5485    -6.2124
    0.5196    -6.1655
    0.4907    -6.0908
    0.4619    -5.9927
    0.4330    -5.8775
    0.4041    -5.7530
    0.3753    -5.6299
    0.3464    -5.5228
    0.3175    -5.4501
    0.2887    -5.4279
    0.2598    -5.4586
    0.2309    -5.5292
    0.2021    -5.6222
    0.1732    -5.7224
    0.1443    -5.8195
    0.1155    -5.9064
    0.0866    -5.9779
    0.0577    -6.0311
    0.0289    -6.0639
    0.0000    -6.0749

# Band-Index     15
    0.0000    -3.0542
    0.0289    -3.0630
    0.0577    -3.1103
    0.0866    -3.2063
    0.1155    -3.3381
    0.1443    -3.4942
    0.1732    -3.6646
    0.2021    -3.8387
    0.2309    -4.0046
    0.2598    -4.1489
    0.2887    -4.2577
    0.3175    -4.3257
    0.3464    -4.4218
    0.3753    -4.5932
    0.4041    -4.7564
    0.4330    -4.9033
    0.4619    -5.0296
    0.4907    -5.1319
    0.5196    -5.2071
    0.5485    -5.2531
    0.5774    -5.2686
    0.5940    -5.2725
    0.6107    -5.2821
    0.6273    -5.2972
    0.6440    -5.3180
    0.6607    -5.3441
    0.6773    -5.3754
    0.6940    -5.4113
    0.7107    -5.4512
    0.7273    -5.4943
    0.7440    -5.5395
    0.7607    -5.5856
    0.7773    -5.6302
    0.7940    -5.5995
    0.8107    -5.5100
    0.8273    -5.4165
    0.8440    -5.3215
    0.8607    -5.2283
    0.8773    -5.1424
    0.8940    -5.0759
    0.9106    -5.0492
    0.9440    -5.1376
    0.9773    -5.2896
    1.0106    -5.4212
    1.0440    -5.5095
    1.0773    -5.3663
    1.1106    -5.1552
    1.1440    -4.9142
    1.1773    -4.6505
    1.2106    -4.3774
    1.2439    -4.2810
    1.2773    -4.2516
    1.3106    -4.1575
    1.3439    -4.0073
    1.3773    -3.8233
    1.4106    -3.6268
    1.4439    -3.4360
    1.4773    -3.2674
    1.5106    -3.1381
    1.5439    -3.0677
    1.5772    -3.0542

# Band-Index     16
    1.5772    -3.0542
    1.5439    -3.0663
    1.5106    -3.1321
    1.4773    -3.2580
    1.4439    -3.4243
    1.4106    -3.6141
    1.3773    -3.8110
    1.3439    -3.9975
    1.3106    -4.1524
    1.2773    -4.2501
    1.2439    -4.2731
    1.2106    -4.3752
    1.1773    -4.6433
    1.1440    -4.9020
    1.1106    -5.1396
    1.0773    -5.3484
    1.0440    -5.5021
    1.0106    -5.4089
    0.9773    -5.2751
    0.9440    -5.1280
    0.9106    -5.0487
    0.8940    -5.0717
    0.8773    -5.1313
    0.8607    -5.2115
    0.8440    -5.3012
    0.8273    -5.3940
    0.8107    -5.4867
    0.7940    -5.5765
    0.7773    -5.6104
    0.7607    -5.5668
    0.7440    -5.5218
    0.7273    -5.4778
    0.7107    -5.4361
    0.6940    -5.3977
    0.6773    -5.3634
    0.6607    -5.3340
    0.6440    -5.3097
    0.6273    -5.2910
    0.6107    -5.2778
    0.5940    -5.2704
    0.5774    -5.2686
    0.5485    -5.2531
    0.5196    -5.2070
    0.4907    -5.1318
    0.4619    -5.0295
    0.4330    -4.9032
    0.4041    -4.7560
    0.3753    -4.5920
    0.3464    -4.4165
    0.3175    -4.3216
    0.2887    -4.2560
    0.2598    -4.1478
    0.2309    -4.0038
    0.2021    -3.8380
    0.1732    -3.6641
    0.1443    -3.4938
    0.1155    -3.3378
    0.0866    -3.2062
    0.0577    -3.1102
    0.0289    -3.0629
    0.0000    -3.0542

# Band-Index     17
    0.0000    -2.9632
    0.0289    -2.9667
    0.0577    -2.9552
    0.0866    -2.9154
    0.1155    -2.8729
    0.1443    -3.0537
    0.1732    -3.2459
    0.2021    -3.4412
    0.2309    -3.6381
    0.2598    -3.8356
    0.2887    -4.0319
    0.3175    -4.2240
    0.3464    -4.3450
    0.3753    -4.3601
    0.4041    -4.3753
    0.4330    -4.3998
    0.4619    -4.4326
    0.4907    -4.4678
    0.5196    -4.4986
    0.5485    -4.5195
    0.5774    -4.5268
    0.5940    -4.5266
    0.6107    -4.5236
    0.6273    -4.5178
    0.6440    -4.5093
    0.6607    -4.4983
    0.6773    -4.4849
    0.6940    -4.4698
    0.7107    -4.4531
    0.7273    -4.4355
    0.7440    -4.4174
    0.7607    -4.3993
    0.7773    -4.3823
    0.7940    -4.3674
    0.8107    -4.3562
    0.8273    -4.3553
    0.8440    -4.3774
    0.8607    -4.4217
    0.8773    -4.4839
    0.8940    -4.5438
    0.9106    -4.5702
    0.9440    -4.4743
    0.9773    -4.2980
    1.0106    -4.1551
    1.0440    -4.0919
    1.0773    -4.0757
    1.1106    -4.0896
    1.1440    -4.1311
    1.1773    -4.1892
    1.2106    -4.2460
    1.2439    -4.1158
    1.2773    -3.8957
    1.3106    -3.7113
    1.3439    -3.5377
    1.3773    -3.3583
    1.4106    -3.1679
    1.4439    -2.9679
    1.4773    -2.8951
    1.5106    -2.9489
    1.5439    -2.9675
    1.5772    -2.9632

# Band-Index     18
    1.5772    -2.9632
    1.5439    -2.9660
    1.5106    -2.9426
    1.4773    -2.8855
    1.4439    -2.9613
    1.4106    -3.1567
    1.3773    -3.3431
    1.3439    -3.5184
    1.3106    -3.6886
    1.2773    -3.8746
    1.2439    -4.1058
    1.2106    -4.2388
    1.1773    -4.1812
    1.1440    -4.1255
    1.1106    -4.0879
    1.0773    -4.0734
    1.0440    -4.0891
    1.0106    -4.1446
    0.9773    -4.2546
    0.9440    -4.4023
    0.9106    -4.4812
    0.8940    -4.4612
    0.8773    -4.4179
    0.8607    -4.3784
    0.8440    -4.3566
    0.8273    -4.3510
    0.8107    -4.3496
    0.7940    -4.3545
    0.7773    -4.3657
    0.7607    -4.3809
    0.7440    -4.3983
    0.7273    -4.4167
    0.7107    -4.4352
    0.6940    -4.4533
    0.6773    -4.4702
    0.6607    -4.4856
    0.6440    -4.4990
    0.6273    -4.5099
    0.6107    -4.5183
    0.5940    -4.5239
    0.5774    -4.5268
    0.5485    -4.5194
    0.5196    -4.4984
    0.4907    -4.4674
    0.4619    -4.4320
    0.4330    -4.3989
    0.4041    -4.3740
    0.3753    -4.3580
    0.3464    -4.3389
    0.3175    -4.2192
    0.2887    -4.0297
    0.2598    -3.8340
    0.2309    -3.6369
    0.2021    -3.4402
    0.1732    -3.2451
    0.1443    -3.0529
    0.1155    -2.8719
    0.0866    -2.9152
    0.0577    -2.9551
    0.0289    -2.9667
    0.0000    -2.9632

# Band-Index     19
    0.0000    -2.3034
    0.0289    -2.3695
    0.0577    -2.5121
    0.0866    -2.6818
    0.1155    -2.8443
    0.1443    -2.7714
    0.1732    -2.6764
    0.2021    -2.5751
    0.2309    -2.6438
    0.2598    -2.7726
    0.2887    -2.8989
    0.3175    -3.0188
    0.3464    -3.1303
    0.3753    -3.2317
    0.4041    -3.3218
    0.4330    -3.3994
    0.4619    -3.4640
    0.4907    -3.5148
    0.5196    -3.5514
    0.5485    -3.5735
    0.5774    -3.5808
    0.5940    -3.5834
    0.6107    -3.5889
    0.6273    -3.5966
    0.6440    -3.6051
    0.6607    -3.6131
    0.6773    -3.6192
    0.6940    -3.6221
    0.7107    -3.6211
    0.7273    -3.6153
    0.7440    -3.6043
    0.7607    -3.5887
    0.7773    -3.5692
    0.7940    -3.5502
    0.8107    -3.5844
    0.8273    -3.7160
    0.8440    -3.8371
    0.8607    -3.9261
    0.8773    -3.9877
    0.8940    -4.0225
    0.9106    -4.0318
    0.9440    -4.0059
    0.9773    -3.9409
    1.0106    -3.8297
    1.0440    -3.6849
    1.0773    -3.7228
    1.1106    -3.7720
    1.1440    -3.7957
    1.1773    -3.7890
    1.2106    -3.7464
    1.2439    -3.6519
    1.2773    -3.4840
    1.3106    -3.2447
    1.3439    -2.9752
    1.3773    -2.7118
    1.4106    -2.7184
    1.4439    -2.8150
    1.4773    -2.7626
    1.5106    -2.5631
    1.5439    -2.3886
    1.5772    -2.3034

# Band-Index     20
    1.5772    -2.3034
    1.5439    -2.3879
    1.5106    -2.5601
    1.4773    -2.7554
    1.4439    -2.7969
    1.4106    -2.6956
    1.3773    -2.6914
    1.3439    -2.9467
    1.3106    -3.2116
    1.2773    -3.4518
    1.2439    -3.6297
    1.2106    -3.7357
    1.1773    -3.7863
    1.1440    -3.7928
    1.1106    -3.7644
    1.0773    -3.7094
    1.0440    -3.6369
    1.0106    -3.7813
    0.9773    -3.9298
    0.9440    -3.9926
    0.9106    -4.0106
    0.8940    -4.0041
    0.8773    -3.9793
    0.8607    -3.9169
    0.8440    -3.8080
    0.8273    -3.6694
    0.8107    -3.5193
    0.7940    -3.5297
    0.7773    -3.5545
    0.7607    -3.5755
    0.7440    -3.5918
    0.7273    -3.6033
    0.7107    -3.6098
    0.6940    -3.6115
    0.6773    -3.6095
    0.6607    -3.6046
    0.6440    -3.5980
    0.6273    -3.5910
    0.6107    -3.5851
    0.5940    -3.5815
    0.5774    -3.5808
    0.5485    -3.5734
    0.5196    -3.5513
    0.4907    -3.5148
    0.4619    -3.4639
    0.4330    -3.3992
    0.4041    -3.3216
    0.3753    -3.2315
    0.3464    -3.1300
    0.3175    -3.0184
    0.2887    -2.8984
    0.2598    -2.7718
    0.2309    -2.6419
    0.2021    -2.5701
    0.1732    -2.6754
    0.1443    -2.7709
    0.1155    -2.8442
    0.0866    -2.6814
    0.0577    -2.5117
    0.0289    -2.3692
    0.0000    -2.3034

# Band-Index     21
    0.0000    -1.9390
    0.0289    -1.9363
    0.0577    -1.9765
    0.0866    -2.0483
    0.1155    -2.1431
    0.1443    -2.2546
    0.1732    -2.3774
    0.2021    -2.5034
    0.2309    -2.4444
    0.2598    -2.3189
    0.2887    -2.1897
    0.3175    -2.0619
    0.3464    -2.0369
    0.3753    -2.1214
    0.4041    -2.1968
    0.4330    -2.2605
    0.4619    -2.3120
    0.4907    -2.3514
    0.5196    -2.3791
    0.5485    -2.3955
    0.5774    -2.4009
    0.5940    -2.4000
    0.6107    -2.3970
    0.6273    -2.3926
    0.6440    -2.3877
    0.6607    -2.3840
    0.6773    -2.3828
    0.6940    -2.3883
    0.7107    -2.4841
    0.7273    -2.6629
    0.7440    -2.8469
    0.7607    -3.0307
    0.7773    -3.2108
    0.7940    -3.3799
    0.8107    -3.4901
    0.8273    -3.4690
    0.8440    -3.4393
    0.8607    -3.4097
    0.8773    -3.3840
    0.8940    -3.3661
    0.9106    -3.3595
    0.9440    -3.3868
    0.9773    -3.4570
    1.0106    -3.5442
    1.0440    -3.5850
    1.0773    -3.3895
    1.1106    -3.1564
    1.1440    -2.9282
    1.1773    -2.7185
    1.2106    -2.5443
    1.2439    -2.4279
    1.2773    -2.3885
    1.3106    -2.4223
    1.3439    -2.5043
    1.3773    -2.6051
    1.4106    -2.4712
    1.4439    -2.2699
    1.4773    -2.1129
    1.5106    -2.0025
    1.5439    -1.9410
    1.5772    -1.9390

# Band-Index     22
    1.5772    -1.9390
    1.5439    -1.9387
    1.5106    -1.9969
    1.4773    -2.1035
    1.4439    -2.2559
    1.4106    -2.4517
    1.3773    -2.5804
    1.3439    -2.4687
    1.3106    -2.3761
    1.2773    -2.3307
    1.2439    -2.3620
    1.2106    -2.4766
    1.1773    -2.6528
    1.1440    -2.8649
    1.1106    -3.0954
    1.0773    -3.3332
    1.0440    -3.5619
    1.0106    -3.5403
    0.9773    -3.4542
    0.9440    -3.3854
    0.9106    -3.3591
    0.8940    -3.3654
    0.8773    -3.3827
    0.8607    -3.4078
    0.8440    -3.4372
    0.8273    -3.4674
    0.8107    -3.4819
    0.7940    -3.3355
    0.7773    -3.1552
    0.7607    -2.9696
    0.7440    -2.7818
    0.7273    -2.5943
    0.7107    -2.4107
    0.6940    -2.3801
    0.6773    -2.3801
    0.6607    -2.3828
    0.6440    -2.3872
    0.6273    -2.3920
    0.6107    -2.3965
    0.5940    -2.3997
    0.5774    -2.4009
    0.5485    -2.3955
    0.5196    -2.3791
    0.4907    -2.3513
    0.4619    -2.3119
    0.4330    -2.2604
    0.4041    -2.1967
    0.3753    -2.1213
    0.3464    -2.0367
    0.3175    -2.0613
    0.2887    -2.1890
    0.2598    -2.3179
    0.2309    -2.4423
    0.2021    -2.4982
    0.1732    -2.3762
    0.1443    -2.2539
    0.1155    -2.1426
    0.0866    -2.0480
    0.0577    -1.9763
    0.0289    -1.9360
    0.0000    -1.9390

# Band-Index     23
    0.0000    -1.8876
    0.0289    -1.8541
    0.0577    -1.7596
    0.0866    -1.6654
    0.1155    -1.5950
    0.1443    -1.5578
    0.1732    -1.5578
    0.2021    -1.5935
    0.2309    -1.6585
    0.2598    -1.7438
    0.2887    -1.8397
    0.3175    -1.9367
    0.3464    -1.9317
    0.3753    -1.8174
    0.4041    -1.7132
    0.4330    -1.6225
    0.4619    -1.5466
    0.4907    -1.4865
    0.5196    -1.4434
    0.5485    -1.4176
    0.5774    -1.4090
    0.5940    -1.4648
    0.6107    -1.5599
    0.6273    -1.6787
    0.6440    -1.8150
    0.6607    -1.9652
    0.6773    -2.1263
    0.6940    -2.2933
    0.7107    -2.3839
    0.7273    -2.3941
    0.7440    -2.4098
    0.7607    -2.4304
    0.7773    -2.4562
    0.7940    -2.4865
    0.8107    -2.5208
    0.8273    -2.5575
    0.8440    -2.5949
    0.8607    -2.6304
    0.8773    -2.6606
    0.8940    -2.6815
    0.9106    -2.6892
    0.9440    -2.6564
    0.9773    -2.5671
    1.0106    -2.4431
    1.0440    -2.3018
    1.0773    -2.1545
    1.1106    -2.0090
    1.1440    -1.8711
    1.1773    -1.7458
    1.2106    -1.6369
    1.2439    -1.5493
    1.2773    -1.4838
    1.3106    -1.4414
    1.3439    -1.4233
    1.3773    -1.4307
    1.4106    -1.4645
    1.4439    -1.5257
    1.4773    -1.6147
    1.5106    -1.7264
    1.5439    -1.8419
    1.5772    -1.8876

# Band-Index     24
    1.5772    -1.8876
    1.5439    -1.8404
    1.5106    -1.7245
    1.4773    -1.6136
    1.4439    -1.5247
    1.4106    -1.4622
    1.3773    -1.4271
    1.3439    -1.4190
    1.3106    -1.4370
    1.2773    -1.4801
    1.2439    -1.5474
    1.2106    -1.6362
    1.1773    -1.7427
    1.1440    -1.8658
    1.1106    -2.0013
    1.0773    -2.1445
    1.0440    -2.2891
    1.0106    -2.4275
    0.9773    -2.5482
    0.9440    -2.6342
    0.9106    -2.6654
    0.8940    -2.6581
    0.8773    -2.6384
    0.8607    -2.6099
    0.8440    -2.5763
    0.8273    -2.5411
    0.8107    -2.5066
    0.7940    -2.4746
    0.7773    -2.4465
    0.7607    -2.4231
    0.7440    -2.4047
    0.7273    -2.3915
    0.7107    -2.3786
    0.6940    -2.2285
    0.6773    -2.0559
    0.6607    -1.8927
    0.6440    -1.7419
    0.6273    -1.6070
    0.6107    -1.4945
    0.5940    -1.4194
    0.5774    -1.4090
    0.5485    -1.4176
    0.5196    -1.4433
    0.4907    -1.4864
    0.4619    -1.5464
    0.4330    -1.6222
    0.4041    -1.7128
    0.3753    -1.8170
    0.3464    -1.9314
    0.3175    -1.9366
    0.2887    -1.8395
    0.2598    -1.7436
    0.2309    -1.6582
    0.2021    -1.5931
    0.1732    -1.5573
    0.1443    -1.5571
    0.1155    -1.5943
    0.0866    -1.6648
    0.0577    -1.7591
    0.0289    -1.8538
    0.0000    -1.8876

# Band-Index     25
    0.0000    -0.5402
    0.0289    -0.5438
    0.0577    -0.5552
    0.0866    -0.5770
    0.1155    -0.6129
    0.1443    -0.6667
    0.1732    -0.7425
    0.2021    -0.8412
    0.2309    -0.9594
    0.2598    -1.0885
    0.2887    -1.2158
    0.3175    -1.3265
    0.3464    -1.4061
    0.3753    -1.4443
    0.4041    -1.4382
    0.4330    -1.3936
    0.4619    -1.3243
    0.4907    -1.2465
    0.5196    -1.1762
    0.5485    -1.1278
    0.5774    -1.1105
    0.5940    -1.1165
    0.6107    -1.0859
    0.6273    -1.0442
    0.6440    -1.0040
    0.6607    -0.9682
    0.6773    -0.9365
    0.6940    -0.9083
    0.7107    -0.8819
    0.7273    -0.8559
    0.7440    -0.8289
    0.7607    -0.8002
    0.7773    -0.7694
    0.7940    -0.7361
    0.8107    -0.7011
    0.8273    -0.6650
    0.8440    -0.6296
    0.8607    -0.5972
    0.8773    -0.5706
    0.8940    -0.5528
    0.9106    -0.5464
    0.9440    -0.5742
    0.9773    -0.6538
    1.0106    -0.7689
    1.0440    -0.8976
    1.0773    -1.0216
    1.1106    -1.1287
    1.1440    -1.2135
    1.1773    -1.2739
    1.2106    -1.3059
    1.2439    -1.2944
    1.2773    -1.2244
    1.3106    -1.1048
    1.3439    -0.9649
    1.3773    -0.8323
    1.4106    -0.7236
    1.4439    -0.6442
    1.4773    -0.5918
    1.5106    -0.5606
    1.5439    -0.5451
    1.5772    -0.5402

# Band-Index     26
    1.5772    -0.5402
    1.5439    -0.5448
    1.5106    -0.5601
    1.4773    -0.5907
    1.4439    -0.6413
    1.4106    -0.7170
    1.3773    -0.8191
    1.3439    -0.9416
    1.3106    -1.0677
    1.2773    -1.1706
    1.2439    -1.2258
    1.2106    -1.2283
    1.1773    -1.1913
    1.1440    -1.1266
    1.1106    -1.0372
    1.0773    -0.9243
    1.0440    -0.7930
    1.0106    -0.6555
    0.9773    -0.5306
    0.9440    -0.4425
    0.9106    -0.4112
    0.8940    -0.4184
    0.8773    -0.4386
    0.8607    -0.4685
    0.8440    -0.5047
    0.8273    -0.5440
    0.8107    -0.5838
    0.7940    -0.6223
    0.7773    -0.6587
    0.7607    -0.6923
    0.7440    -0.7234
    0.7273    -0.7525
    0.7107    -0.7806
    0.6940    -0.8091
    0.6773    -0.8396
    0.6607    -0.8739
    0.6440    -0.9134
    0.6273    -0.9592
    0.6107    -1.0116
    0.5940    -1.0666
    0.5774    -1.1105
    0.5485    -1.1278
    0.5196    -1.1762
    0.4907    -1.2465
    0.4619    -1.3243
    0.4330    -1.3936
    0.4041    -1.4381
    0.3753    -1.4443
    0.3464    -1.4061
    0.3175    -1.3264
    0.2887    -1.2158
    0.2598    -1.0884
    0.2309    -0.9592
    0.2021    -0.8408
    0.1732    -0.7420
    0.1443    -0.6662
    0.1155    -0.6123
    0.0866    -0.5765
    0.0577    -0.5549
    0.0289    -0.5436
    0.0000    -0.5402

# Band-Index     27
    0.0000    2.2759
    0.0289    2.2694
    0.0577    2.2298
    0.0866    2.1680
    0.1155    2.0874
    0.1443    1.9671
    0.1732    1.8434
    0.2021    1.7429
    0.2309    1.6754
    0.2598    1.6429
    0.2887    1.6427
    0.3175    1.6676
    0.3464    1.7040
    0.3753    1.7205
    0.4041    1.7208
    0.4330    1.7261
    0.4619    1.7385
    0.4907    1.7554
    0.5196    1.7721
    0.5485    1.7839
    0.5774    1.7886
    0.5940    1.7842
    0.6107    1.7821
    0.6273    1.7814
    0.6440    1.7793
    0.6607    1.7743
    0.6773    1.7645
    0.6940    1.7481
    0.7107    1.7243
    0.7273    1.6932
    0.7440    1.6552
    0.7607    1.6108
    0.7773    1.5618
    0.7940    1.5093
    0.8107    1.4549
    0.8273    1.4014
    0.8440    1.3511
    0.8607    1.3069
    0.8773    1.2718
    0.8940    1.2490
    0.9106    1.2410
    0.9440    1.2737
    0.9773    1.3633
    1.0106    1.4835
    1.0440    1.6003
    1.0773    1.6797
    1.1106    1.6687
    1.1440    1.5675
    1.1773    1.4594
    1.2106    1.3901
    1.2439    1.3764
    1.2773    1.4156
    1.3106    1.4953
    1.3439    1.6024
    1.3773    1.7293
    1.4106    1.8700
    1.4439    2.0128
    1.4773    2.1245
    1.5106    2.2045
    1.5439    2.2625
    1.5772    2.2759

# Band-Index     28
    1.5772    2.2759
    1.5439    2.2697
    1.5106    2.2198
    1.4773    2.1375
    1.4439    2.0358
    1.4106    1.8763
    1.3773    1.7433
    1.3439    1.6382
    1.3106    1.5529
    1.2773    1.4901
    1.2439    1.4615
    1.2106    1.4795
    1.1773    1.5443
    1.1440    1.6320
    1.1106    1.6919
    1.0773    1.6947
    1.0440    1.6287
    1.0106    1.5095
    0.9773    1.3804
    0.9440    1.2815
    0.9106    1.2449
    0.8940    1.2539
    0.8773    1.2795
    0.8607    1.3189
    0.8440    1.3684
    0.8273    1.4246
    0.8107    1.4843
    0.7940    1.5450
    0.7773    1.6038
    0.7607    1.6590
    0.7440    1.7091
    0.7273    1.7518
    0.7107    1.7862
    0.6940    1.8107
    0.6773    1.8246
    0.6607    1.8282
    0.6440    1.8242
    0.6273    1.8155
    0.6107    1.8048
    0.5940    1.7954
    0.5774    1.7886
    0.5485    1.7840
    0.5196    1.7722
    0.4907    1.7555
    0.4619    1.7387
    0.4330    1.7263
    0.4041    1.7210
    0.3753    1.7206
    0.3464    1.7047
    0.3175    1.6687
    0.2887    1.6439
    0.2598    1.6444
    0.2309    1.6772
    0.2021    1.7453
    0.1732    1.8467
    0.1443    1.9727
    0.1155    2.0974
    0.0866    2.1730
    0.0577    2.2321
    0.0289    2.2702
    0.0000    2.2759

# Band-Index     29
    0.0000    2.3100
    0.0289    2.3153
    0.0577    2.3433
    0.0866    2.2669
    0.1155    2.1499
    0.1443    2.0962
    0.1732    2.0880
    0.2021    2.0930
    0.2309    2.0188
    0.2598    1.9433
    0.2887    1.8775
    0.3175    1.8272
    0.3464    1.8023
    0.3753    1.8292
    0.4041    1.8984
    0.4330    1.9823
    0.4619    2.0700
    0.4907    2.1533
    0.5196    2.2244
    0.5485    2.2726
    0.5774    2.2901
    0.5940    2.2798
    0.6107    2.2725
    0.6273    2.2697
    0.6440    2.2726
    0.6607    2.2835
    0.6773    2.3045
    0.6940    2.3361
    0.7107    2.3778
    0.7273    2.4278
    0.7440    2.4838
    0.7607    2.5426
    0.7773    2.6003
    0.7940    2.6474
    0.8107    2.6571
    0.8273    2.6081
    0.8440    2.5687
    0.8607    2.5394
    0.8773    2.5196
    0.8940    2.5086
    0.9106    2.5050
    0.9440    2.5163
    0.9773    2.5424
    1.0106    2.5704
    1.0440    2.4655
    1.0773    2.3010
    1.1106    2.1858
    1.1440    2.1286
    1.1773    2.0755
    1.2106    2.0206
    1.2439    1.9750
    1.2773    1.9483
    1.3106    1.9523
    1.3439    1.9638
    1.3773    1.9656
    1.4106    1.9942
    1.4439    2.0542
    1.4773    2.2037
    1.5106    2.3334
    1.5439    2.3161
    1.5772    2.3100

# Band-Index     30
    1.5772    2.3100
    1.5439    2.3219
    1.5106    2.3490
    1.4773    2.2255
    1.4439    2.1157
    1.4106    2.0515
    1.3773    2.0169
    1.3439    1.9870
    1.3106    1.9637
    1.2773    1.9714
    1.2439    2.0012
    1.2106    2.0439
    1.1773    2.0880
    1.1440    2.1429
    1.1106    2.2495
    1.0773    2.4152
    1.0440    2.5876
    1.0106    2.5756
    0.9773    2.5761
    0.9440    2.5584
    0.9106    2.5493
    0.8940    2.5524
    0.8773    2.5619
    0.8607    2.5789
    0.8440    2.6034
    0.8273    2.6335
    0.8107    2.6589
    0.7940    2.7165
    0.7773    2.7544
    0.7607    2.7000
    0.7440    2.6385
    0.7273    2.5791
    0.7107    2.5241
    0.6940    2.4745
    0.6773    2.4313
    0.6607    2.3944
    0.6440    2.3641
    0.6273    2.3395
    0.6107    2.3193
    0.5940    2.3032
    0.5774    2.2901
    0.5485    2.2727
    0.5196    2.2247
    0.4907    2.1537
    0.4619    2.0706
    0.4330    1.9829
    0.4041    1.8991
    0.3753    1.8297
    0.3464    1.8025
    0.3175    1.8276
    0.2887    1.8780
    0.2598    1.9438
    0.2309    2.0195
    0.2021    2.0944
    0.1732    2.0913
    0.1443    2.1019
    0.1155    2.1600
    0.0866    2.2723
    0.0577    2.3461
    0.0289    2.3159
    0.0000    2.3100

# Band-Index     31
    0.0000    2.4875
    0.0289    2.4669
    0.0577    2.4084
    0.0866    2.4109
    0.1155    2.3519
    0.1443    2.2755
    0.1732    2.1932
    0.2021    2.1353
    0.2309    2.1974
    0.2598    2.3000
    0.2887    2.4271
    0.3175    2.5691
    0.3464    2.7168
    0.3753    2.8618
    0.4041    2.9965
    0.4330    3.1149
    0.4619    3.2128
    0.4907    3.2881
    0.5196    3.3409
    0.5485    3.3720
    0.5774    3.3825
    0.5940    3.3833
    0.6107    3.3951
    0.6273    3.4154
    0.6440    3.4367
    0.6607    3.4327
    0.6773    3.3743
    0.6940    3.2704
    0.7107    3.1640
    0.7273    3.0611
    0.7440    2.9643
    0.7607    2.8755
    0.7773    2.8042
    0.7940    2.7984
    0.8107    2.7917
    0.8273    2.8275
    0.8440    2.8728
    0.8607    2.9145
    0.8773    2.9477
    0.8940    2.9692
    0.9106    2.9767
    0.9440    2.9440
    0.9773    2.8473
    1.0106    2.7116
    1.0440    2.6171
    1.0773    2.5835
    1.1106    2.5502
    1.1440    2.4784
    1.1773    2.3834
    1.2106    2.2809
    1.2439    2.1821
    1.2773    2.0972
    1.3106    2.0383
    1.3439    2.0366
    1.3773    2.0997
    1.4106    2.1918
    1.4439    2.2903
    1.4773    2.3792
    1.5106    2.3845
    1.5439    2.4583
    1.5772    2.4875

# Band-Index     32
    1.5772    2.4875
    1.5439    2.4614
    1.5106    2.4173
    1.4773    2.3957
    1.4439    2.3085
    1.4106    2.2090
    1.3773    2.1152
    1.3439    2.0672
    1.3106    2.0888
    1.2773    2.1472
    1.2439    2.2264
    1.2106    2.3168
    1.1773    2.4082
    1.1440    2.4892
    1.1106    2.5564
    1.0773    2.6092
    1.0440    2.6409
    1.0106    2.8153
    0.9773    2.9781
    0.9440    3.0815
    0.9106    3.1157
    0.8940    3.1079
    0.8773    3.0855
    0.8607    3.0507
    0.8440    3.0058
    0.8273    2.9532
    0.8107    2.8953
    0.7940    2.8353
    0.7773    2.8494
    0.7607    2.9206
    0.7440    3.0035
    0.7273    3.0941
    0.7107    3.1897
    0.6940    3.2860
    0.6773    3.3760
    0.6607    3.4726
    0.6440    3.4889
    0.6273    3.4486
    0.6107    3.4153
    0.5940    3.3930
    0.5774    3.3825
    0.5485    3.3722
    0.5196    3.3414
    0.4907    3.2887
    0.4619    3.2134
    0.4330    3.1156
    0.4041    2.9973
    0.3753    2.8627
    0.3464    2.7178
    0.3175    2.5702
    0.2887    2.4283
    0.2598    2.3014
    0.2309    2.1991
    0.2021    2.1367
    0.1732    2.1938
    0.1443    2.2763
    0.1155    2.3532
    0.0866    2.4144
    0.0577    2.4084
    0.0289    2.4670
    0.0000    2.4875

# Band-Index     33
    0.0000    2.5392
    0.0289    2.5209
    0.0577    2.4806
    0.0866    2.4576
    0.1155    2.5483
    0.1443    2.6639
    0.1732    2.7902
    0.2021    2.9206
    0.2309    3.0497
    0.2598    3.1732
    0.2887    3.2875
    0.3175    3.3909
    0.3464    3.4820
    0.3753    3.5602
    0.4041    3.6258
    0.4330    3.6794
    0.4619    3.7215
    0.4907    3.7531
    0.5196    3.7752
    0.5485    3.7882
    0.5774    3.7926
    0.5940    3.7743
    0.6107    3.7310
    0.6273    3.6663
    0.6440    3.5882
    0.6607    3.5642
    0.6773    3.6206
    0.6940    3.6718
    0.7107    3.7363
    0.7273    3.8075
    0.7440    3.8820
    0.7607    3.9564
    0.7773    4.0288
    0.7940    4.0972
    0.8107    4.1595
    0.8273    4.2145
    0.8440    4.2607
    0.8607    4.2967
    0.8773    4.3225
    0.8940    4.3378
    0.9106    4.3426
    0.9440    4.3246
    0.9773    4.2774
    1.0106    4.2129
    1.0440    4.1436
    1.0773    4.0784
    1.1106    4.0201
    1.1440    3.9560
    1.1773    3.8710
    1.2106    3.7691
    1.2439    3.6443
    1.2773    3.4954
    1.3106    3.3259
    1.3439    3.1436
    1.3773    2.9570
    1.4106    2.7767
    1.4439    2.6138
    1.4773    2.4789
    1.5106    2.4636
    1.5439    2.5145
    1.5772    2.5392

# Band-Index     34
    1.5772    2.5392
    1.5439    2.5165
    1.5106    2.4690
    1.4773    2.5216
    1.4439    2.6621
    1.4106    2.8298
    1.3773    3.0131
    1.3439    3.2007
    1.3106    3.3819
    1.2773    3.5479
    1.2439    3.6906
    1.2106    3.8058
    1.1773    3.8944
    1.1440    3.9623
    1.1106    4.0337
    1.0773    4.1124
    1.0440    4.1960
    1.0106    4.2796
    0.9773    4.3538
    0.9440    4.4064
    0.9106    4.4261
    0.8940    4.4208
    0.8773    4.4044
    0.8607    4.3767
    0.8440    4.3380
    0.8273    4.2886
    0.8107    4.2297
    0.7940    4.1629
    0.7773    4.0893
    0.7607    4.0112
    0.7440    3.9302
    0.7273    3.8483
    0.7107    3.7683
    0.6940    3.6920
    0.6773    3.6218
    0.6607    3.6027
    0.6440    3.6402
    0.6273    3.7000
    0.6107    3.7518
    0.5940    3.7844
    0.5774    3.7926
    0.5485    3.7882
    0.5196    3.7753
    0.4907    3.7532
    0.4619    3.7217
    0.4330    3.6796
    0.4041    3.6260
    0.3753    3.5604
    0.3464    3.4822
    0.3175    3.3912
    0.2887    3.2879
    0.2598    3.1736
    0.2309    3.0501
    0.2021    2.9211
    0.1732    2.7909
    0.1443    2.6648
    0.1155    2.5497
    0.0866    2.4615
    0.0577    2.4813
    0.0289    2.5210
    0.0000    2.5392

